trials.thisRepN,trials.thisTrialN,trials.thisN,trials.thisIndex,thisRow.t,notes,trial.started,num_distr,fixation.started,target.started,mouse.started,trial.stopped,mouse.x,mouse.y,mouse.leftButton,mouse.midButton,mouse.rightButton,mouse.time,mouse.clicked_name,participant,session,date,expName,psychopyVersion,frameRate,expStart,
0,0,0,0,0.05619000003207475,,0.006769599975086749,10,0.05619000003207475,0.05619000003207475,0.043884099926799536,1.480919299996458,[-0.2638888888888889],[0.32314814814814813],[1],[0],[0],[1.4364100999664515],['target'],DM,001,2024-10-10_19h58.50.672,visula search,2024.1.5,None,2024-10-10 20h03.00.274554 +0530,
1,0,1,0,1.523822500021197,,1.4843148000072688,10,1.523822500021197,1.523822500021197,0.027900999994017184,2.963449800037779,[-0.21666666666666667],[0.24166666666666667],[1],[0],[0],[1.4514611999038607],['target'],DM,001,2024-10-10_19h58.50.672,visula search,2024.1.5,None,2024-10-10 20h03.00.274554 +0530,
2,0,2,0,3.003691800055094,,2.966196099994704,10,3.003691800055094,3.003691800055094,0.02660510002169758,4.713531299959868,[-0.44814814814814813],[-0.18796296296296297],[1],[0],[0],[1.7210029000416398],['target'],DM,001,2024-10-10_19h58.50.672,visula search,2024.1.5,None,2024-10-10 20h03.00.274554 +0530,
3,0,3,0,4.736845699953847,,4.716174199944362,5,4.736845699953847,4.736845699953847,0.013821700005792081,6.7969761999556795,[-0.04259259259259259],[-0.3907407407407407],[1],[0],[0],[2.0671992999268696],['target'],DM,001,2024-10-10_19h58.50.672,visula search,2024.1.5,None,2024-10-10 20h03.00.274554 +0530,
4,0,4,0,6.838743499945849,,6.799699599971063,10,6.838743499945849,6.838743499945849,0.028449099976569414,8.478653899976052,[-0.044444444444444446],[-0.46296296296296297],[1],[0],[0],[1.6507475998951122],['target'],DM,001,2024-10-10_19h58.50.672,visula search,2024.1.5,None,2024-10-10 20h03.00.274554 +0530,
5,0,5,0,8.521496800007299,,8.48155859997496,10,8.521496800007299,8.521496800007299,0.02891639992594719,11.478172500035726,[0.28055555555555556],[-0.4398148148148148],[1],[0],[0],[2.9678488000063226],['target'],DM,001,2024-10-10_19h58.50.672,visula search,2024.1.5,None,2024-10-10 20h03.00.274554 +0530,
6,0,6,0,11.501337599940598,,11.480771900038235,5,11.501337599940598,11.501337599940598,0.01351229997817427,13.193821599939838,[-0.4398148148148148],[-0.31851851851851853],[1],[0],[0],[1.6997292999876663],['target'],DM,001,2024-10-10_19h58.50.672,visula search,2024.1.5,None,2024-10-10 20h03.00.274554 +0530,
7,0,7,0,13.219432599958964,,13.196815000032075,5,13.219432599958964,13.219432599958964,0.015187899931333959,14.49409489997197,[-0.4564814814814815],[-0.45185185185185184],[1],[0],[0],[1.282337800017558],['target'],DM,001,2024-10-10_19h58.50.672,visula search,2024.1.5,None,2024-10-10 20h03.00.274554 +0530,
8,0,8,0,14.522406999953091,,14.497591799939983,5,14.522406999953091,14.522406999953091,0.017671599984169006,15.943372800014913,[-0.005555555555555556],[0.1675925925925926],[1],[0],[0],[1.4285168000496924],['target'],DM,001,2024-10-10_19h58.50.672,visula search,2024.1.5,None,2024-10-10 20h03.00.274554 +0530,
9,0,9,0,15.985834300052375,,15.946581399999559,10,15.985834300052375,15.985834300052375,0.028093300061300397,17.359478099970147,[-0.25277777777777777],[0.44537037037037036],[1],[0],[0],[1.3851114000426605],['target'],DM,001,2024-10-10_19h58.50.672,visula search,2024.1.5,None,2024-10-10 20h03.00.274554 +0530,
10,0,10,0,17.383222899981774,,17.362206500023603,5,17.383222899981774,17.383222899981774,0.013820599997416139,18.74261670000851,[-0.32685185185185184],[-0.1],[1],[0],[0],[1.3667701999656856],['target'],DM,001,2024-10-10_19h58.50.672,visula search,2024.1.5,None,2024-10-10 20h03.00.274554 +0530,
11,0,11,0,18.769144000019878,,18.745543999946676,5,18.769144000019878,18.769144000019878,0.01565780001692474,20.625307100010104,[-0.21296296296296297],[0.45740740740740743],[1],[0],[0],[1.8639685000525787],['target'],DM,001,2024-10-10_19h58.50.672,visula search,2024.1.5,None,2024-10-10 20h03.00.274554 +0530,
12,0,12,0,20.655925099970773,,20.629369599977508,5,20.655925099970773,20.655925099970773,0.01860340009443462,22.558018499985337,[0.3861111111111111],[0.17685185185185184],[1],[0],[0],[1.9105170000111684],['target'],DM,001,2024-10-10_19h58.50.672,visula search,2024.1.5,None,2024-10-10 20h03.00.274554 +0530,
13,0,13,0,22.60042369994335,,22.56110000004992,10,22.60042369994335,22.60042369994335,0.027705200016498566,24.973935100017115,[-0.31203703703703706],[0.41944444444444445],[1],[0],[0],[2.3854193000588566],['target'],DM,001,2024-10-10_19h58.50.672,visula search,2024.1.5,None,2024-10-10 20h03.00.274554 +0530,
14,0,14,0,25.01506290002726,,24.97646429995075,10,25.01506290002726,25.01506290002726,0.02605809993110597,26.05713490000926,[-0.2518518518518518],[0.4759259259259259],[1],[0],[0],[1.0547996000386775],['target'],DM,001,2024-10-10_19h58.50.672,visula search,2024.1.5,None,2024-10-10 20h03.00.274554 +0530,
15,0,15,0,26.098540500039235,,26.05970119999256,10,26.098540500039235,26.098540500039235,0.026084700017236173,27.23989069997333,[-0.2101851851851852],[0.4444444444444444],[1],[0],[0],[1.1542265999596566],['target'],DM,001,2024-10-10_19h58.50.672,visula search,2024.1.5,None,2024-10-10 20h03.00.274554 +0530,
16,0,16,0,27.264699700055644,,27.242610699962825,5,27.264699700055644,27.264699700055644,0.014280600007623434,30.072114299982786,[-0.07222222222222222],[-0.2564814814814815],[1],[0],[0],[2.815473699942231],['target'],DM,001,2024-10-10_19h58.50.672,visula search,2024.1.5,None,2024-10-10 20h03.00.274554 +0530,
17,0,17,0,30.11704899999313,,30.075420600012876,10,30.11704899999313,30.11704899999313,0.029314100043848157,32.63846489996649,[0.42777777777777776],[-0.34444444444444444],[1],[0],[0],[2.5341360999736935],['target'],DM,001,2024-10-10_19h58.50.672,visula search,2024.1.5,None,2024-10-10 20h03.00.274554 +0530,
18,0,18,0,32.66393999999855,,32.64099049998913,5,32.66393999999855,32.66393999999855,0.015205099945887923,34.90442269993946,[0.3824074074074074],[-0.4537037037037037],[1],[0],[0],[2.2484761000378057],['target'],DM,001,2024-10-10_19h58.50.672,visula search,2024.1.5,None,2024-10-10 20h03.00.274554 +0530,
19,0,19,0,34.93058839999139,,34.90731339994818,5,34.93058839999139,34.93058839999139,0.015465299948118627,37.03631909994874,[-0.007407407407407408],[-0.08518518518518518],[1],[0],[0],[2.113815899938345],['target'],DM,001,2024-10-10_19h58.50.672,visula search,2024.1.5,None,2024-10-10 20h03.00.274554 +0530,
20,0,20,0,37.07695410004817,,37.039234500029124,10,37.07695410004817,37.07695410004817,0.026471500052139163,38.85265120002441,[-0.2972222222222222],[-0.125],[1],[0],[0],[1.78726079990156],['target'],DM,001,2024-10-10_19h58.50.672,visula search,2024.1.5,None,2024-10-10 20h03.00.274554 +0530,
21,0,21,0,38.89258760004304,,38.855190700036474,10,38.89258760004304,38.89258760004304,0.025936099933460355,40.26899589993991,[-0.11018518518518519],[0.30277777777777776],[1],[0],[0],[1.3880395999876782],['target'],DM,001,2024-10-10_19h58.50.672,visula search,2024.1.5,None,2024-10-10 20h03.00.274554 +0530,
22,0,22,0,40.293252200004645,,40.27168190001976,5,40.293252200004645,40.293252200004645,0.013869500020518899,41.13508489995729,[-0.14629629629629629],[0.2777777777777778],[1],[0],[0],[0.849655699916184],['target'],DM,001,2024-10-10_19h58.50.672,visula search,2024.1.5,None,2024-10-10 20h03.00.274554 +0530,
23,0,23,0,41.1623544000322,,41.13836069998797,5,41.1623544000322,41.1623544000322,0.01594039995688945,42.70154979999643,[0.22592592592592592],[-0.19444444444444445],[1],[0],[0],[1.5475096999434754],['target'],DM,001,2024-10-10_19h58.50.672,visula search,2024.1.5,None,2024-10-10 20h03.00.274554 +0530,
24,0,24,0,42.74447599996347,,42.70451950002462,10,42.74447599996347,42.74447599996347,0.027154300012625754,44.151000599958934,[-0.21944444444444444],[-0.08611111111111111],[1],[0],[0],[1.419663600041531],['target'],DM,001,2024-10-10_19h58.50.672,visula search,2024.1.5,None,2024-10-10 20h03.00.274554 +0530,
25,0,25,0,44.17770839994773,,44.154026399948634,5,44.17770839994773,44.17770839994773,0.015012199990451336,45.200504899956286,[-0.11481481481481481],[-0.21388888888888888],[1],[0],[0],[1.0317190999630839],['target'],DM,001,2024-10-10_19h58.50.672,visula search,2024.1.5,None,2024-10-10 20h03.00.274554 +0530,
26,0,26,0,45.22710829996504,,45.20343510003295,5,45.22710829996504,45.22710829996504,0.015458900015801191,46.56649210001342,[0.08425925925925926],[-0.22685185185185186],[1],[0],[0],[1.3479142000433058],['target'],DM,001,2024-10-10_19h58.50.672,visula search,2024.1.5,None,2024-10-10 20h03.00.274554 +0530,
27,0,27,0,46.59161440003663,,46.56925409997348,5,46.59161440003663,46.59161440003663,0.014520599972456694,48.199823900009505,[0.3925925925925926],[-0.2064814814814815],[1],[0],[0],[1.6162405000068247],['target'],DM,001,2024-10-10_19h58.50.672,visula search,2024.1.5,None,2024-10-10 20h03.00.274554 +0530,
28,0,28,0,48.24233819998335,,48.20305779995397,10,48.24233819998335,48.24233819998335,0.028136099921539426,49.14875789999496,[0.18333333333333332],[-0.1685185185185185],[1],[0],[0],[0.9179444999899715],['target'],DM,001,2024-10-10_19h58.50.672,visula search,2024.1.5,None,2024-10-10 20h03.00.274554 +0530,
29,0,29,0,49.191623399965465,,49.15153310005553,10,49.191623399965465,49.191623399965465,0.027662700042128563,58.71309219999239,[0.001851851851851852],[0.14907407407407408],[1],[0],[0],[9.53411339991726],['target'],DM,001,2024-10-10_19h58.50.672,visula search,2024.1.5,None,2024-10-10 20h03.00.274554 +0530,
30,0,30,0,58.737825399963185,,58.715717199957,5,58.737825399963185,58.737825399963185,0.01372420007828623,60.462367499945685,[0.47685185185185186],[0.25462962962962965],[1],[0],[0],[1.733150799991563],['target'],DM,001,2024-10-10_19h58.50.672,visula search,2024.1.5,None,2024-10-10 20h03.00.274554 +0530,
31,0,31,0,60.4887885999633,,60.46564419998322,5,60.4887885999633,60.4887885999633,0.01582189998589456,61.72812320000958,[0.2916666666666667],[0.125],[1],[0],[0],[1.2472574999555945],['target'],DM,001,2024-10-10_19h58.50.672,visula search,2024.1.5,None,2024-10-10 20h03.00.274554 +0530,
32,0,32,0,61.75723989994731,,61.731956199975684,5,61.75723989994731,61.75723989994731,0.01697429991327226,63.31140470004175,[0.2759259259259259],[-0.08981481481481482],[1],[0],[0],[1.5630712999263778],['target'],DM,001,2024-10-10_19h58.50.672,visula search,2024.1.5,None,2024-10-10 20h03.00.274554 +0530,
33,0,33,0,63.33812700002454,,63.31432779994793,5,63.33812700002454,63.33812700002454,0.01588000007905066,64.86135450005531,[0.35],[-0.41203703703703703],[1],[0],[0],[1.5313188000582159],['target'],DM,001,2024-10-10_19h58.50.672,visula search,2024.1.5,None,2024-10-10 20h03.00.274554 +0530,
34,0,34,0,64.88786240003537,,64.86464120005257,5,64.88786240003537,64.88786240003537,0.01545030006673187,66.0606822000118,[0.0962962962962963],[-0.12777777777777777],[1],[0],[0],[1.1807944000465795],['target'],DM,001,2024-10-10_19h58.50.672,visula search,2024.1.5,None,2024-10-10 20h03.00.274554 +0530,
35,0,35,0,66.10592919995543,,66.06415460002609,10,66.10592919995543,66.10592919995543,0.029793099965900183,67.84319219994359,[0.4398148148148148],[0.05462962962962963],[1],[0],[0],[1.7496859000530094],['target'],DM,001,2024-10-10_19h58.50.672,visula search,2024.1.5,None,2024-10-10 20h03.00.274554 +0530,
36,0,36,0,67.88479429995641,,67.84585189993959,10,67.88479429995641,67.88479429995641,0.026389300008304417,69.27656479994766,[-0.11944444444444445],[0.05648148148148148],[1],[0],[0],[1.4044074000557885],['target'],DM,001,2024-10-10_19h58.50.672,visula search,2024.1.5,None,2024-10-10 20h03.00.274554 +0530,
37,0,37,0,69.30061499995645,,69.2792419999605,5,69.30061499995645,69.30061499995645,0.013916099909693003,71.25908119999804,[0.38425925925925924],[-0.003703703703703704],[1],[0],[0],[1.9661272999364883],['target'],DM,001,2024-10-10_19h58.50.672,visula search,2024.1.5,None,2024-10-10 20h03.00.274554 +0530,
38,0,38,0,71.28426250000484,,71.26195279997773,5,71.28426250000484,71.28426250000484,0.014908100012689829,73.77457500004675,[-0.4777777777777778],[-0.4722222222222222],[1],[0],[0],[2.497971900040284],['target'],DM,001,2024-10-10_19h58.50.672,visula search,2024.1.5,None,2024-10-10 20h03.00.274554 +0530,
39,0,39,0,73.80266060004942,,73.77813949994743,5,73.80266060004942,73.80266060004942,0.016654400038532913,75.59084029996302,[-0.032407407407407406],[0.37777777777777777],[1],[0],[0],[1.7964353000279516],['target'],DM,001,2024-10-10_19h58.50.672,visula search,2024.1.5,None,2024-10-10 20h03.00.274554 +0530,
40,0,40,0,75.63208350003697,,75.59386829996947,10,75.63208350003697,75.63208350003697,0.027147100074216723,78.63999459997285,[0.3425925925925926],[0.06851851851851852],[1],[0],[0],[3.0192550000501797],['target'],DM,001,2024-10-10_19h58.50.672,visula search,2024.1.5,None,2024-10-10 20h03.00.274554 +0530,
41,0,41,0,78.68113649997395,,78.6427167999791,10,78.68113649997395,78.68113649997395,0.026822099927812815,82.08914539997932,[0.45185185185185184],[-0.32685185185185184],[1],[0],[0],[3.419822599971667],['target'],DM,001,2024-10-10_19h58.50.672,visula search,2024.1.5,None,2024-10-10 20h03.00.274554 +0530,
42,0,42,0,82.13359290000517,,82.09178430004977,10,82.13359290000517,82.13359290000517,0.027940599946305156,85.80429430003278,[0.1814814814814815],[-0.019444444444444445],[1],[0],[0],[3.68478689994663],['target'],DM,001,2024-10-10_19h58.50.672,visula search,2024.1.5,None,2024-10-10 20h03.00.274554 +0530,
43,0,43,0,85.8466581000248,,85.80695620004553,10,85.8466581000248,85.8466581000248,0.026609100052155554,88.25381400005426,[0.4324074074074074],[0.4962962962962963],[1],[0],[0],[2.4204700000118464],['target'],DM,001,2024-10-10_19h58.50.672,visula search,2024.1.5,None,2024-10-10 20h03.00.274554 +0530,
44,0,44,0,88.29516640002839,,88.2563876999775,10,88.29516640002839,88.29516640002839,0.025891800061799586,90.60249560000375,[0.15462962962962962],[-0.2361111111111111],[1],[0],[0],[2.3203979999525473],['target'],DM,001,2024-10-10_19h58.50.672,visula search,2024.1.5,None,2024-10-10 20h03.00.274554 +0530,
45,0,45,0,90.62759010004811,,90.6052459999919,5,90.62759010004811,90.62759010004811,0.014313199906609952,94.03470750001725,[0.3768518518518518],[-0.43796296296296294],[1],[0],[0],[3.4152787999482825],['target'],DM,001,2024-10-10_19h58.50.672,visula search,2024.1.5,None,2024-10-10 20h03.00.274554 +0530,
46,0,46,0,94.07475220004562,,94.03956319997087,5,94.07475220004562,94.07475220004562,0.022386800032109022,96.16753059998155,[-0.42962962962962964],[0.3],[1],[0],[0],[2.105841400101781],['target'],DM,001,2024-10-10_19h58.50.672,visula search,2024.1.5,None,2024-10-10 20h03.00.274554 +0530,
47,0,47,0,96.19377450004686,,96.17064100003336,5,96.19377450004686,96.19377450004686,0.015938400058075786,97.7832127000438,[-0.16203703703703703],[0.4046296296296296],[1],[0],[0],[1.5969229000620544],['target'],DM,001,2024-10-10_19h58.50.672,visula search,2024.1.5,None,2024-10-10 20h03.00.274554 +0530,
48,0,48,0,97.82512960000895,,97.78646910004318,10,97.82512960000895,97.82512960000895,0.027601400041021407,101.2831730999751,[0.09814814814814815],[0.4925925925925926],[1],[0],[0],[3.4695322000188753],['target'],DM,001,2024-10-10_19h58.50.672,visula search,2024.1.5,None,2024-10-10 20h03.00.274554 +0530,
49,0,49,0,101.3266569999978,,101.28573070000857,10,101.3266569999978,101.3266569999978,0.028896500007249415,103.68191239994485,[0.48703703703703705],[0.3962962962962963],[1],[0],[0],[2.367488899966702],['target'],DM,001,2024-10-10_19h58.50.672,visula search,2024.1.5,None,2024-10-10 20h03.00.274554 +0530,
50,0,50,0,103.70651649998035,,103.6846271000104,5,103.70651649998035,103.70651649998035,0.014041899936273694,105.53190699999686,[-0.08518518518518518],[0.08981481481481482],[1],[0],[0],[1.833368599996902],['target'],DM,001,2024-10-10_19h58.50.672,visula search,2024.1.5,None,2024-10-10 20h03.00.274554 +0530,
51,0,51,0,105.57747080002446,,105.53567100001965,10,105.57747080002446,105.57747080002446,0.03048840002156794,108.13073159998748,[-0.387037037037037],[0.38981481481481484],[1],[0],[0],[2.564993300009519],['target'],DM,001,2024-10-10_19h58.50.672,visula search,2024.1.5,None,2024-10-10 20h03.00.274554 +0530,
52,0,52,0,108.17082769994158,,108.1332072999794,10,108.17082769994158,108.17082769994158,0.026247099973261356,109.78035070002079,[-0.18333333333333332],[0.3509259259259259],[1],[0],[0],[1.6211220999248326],['target'],DM,001,2024-10-10_19h58.50.672,visula search,2024.1.5,None,2024-10-10 20h03.00.274554 +0530,
53,0,53,0,109.82094300002791,,109.7829325000057,10,109.82094300002791,109.82094300002791,0.026224100030958652,112.41254779999144,[-0.4101851851851852],[-0.27314814814814814],[1],[0],[0],[2.603599900030531],['target'],DM,001,2024-10-10_19h58.50.672,visula search,2024.1.5,None,2024-10-10 20h03.00.274554 +0530,
54,0,54,0,112.4362456999952,,112.41518390004057,5,112.4362456999952,112.4362456999952,0.013564900029450655,113.97881060000509,[0.29259259259259257],[-0.07222222222222222],[1],[0],[0],[1.5502335999626666],['target'],DM,001,2024-10-10_19h58.50.672,visula search,2024.1.5,None,2024-10-10 20h03.00.274554 +0530,
55,0,55,0,114.0277805000078,,113.98239739995915,10,114.0277805000078,114.0277805000078,0.03380279999691993,116.56080930004828,[-0.2064814814814815],[-0.27870370370370373],[1],[0],[0],[2.545086700003594],['target'],DM,001,2024-10-10_19h58.50.672,visula search,2024.1.5,None,2024-10-10 20h03.00.274554 +0530,
56,0,56,0,116.5866978999693,,116.56365250004455,5,116.5866978999693,116.5866978999693,0.015409399988129735,117.77750269998796,[-0.3712962962962963],[-0.10277777777777777],[1],[0],[0],[1.1986849999520928],['target'],DM,001,2024-10-10_19h58.50.672,visula search,2024.1.5,None,2024-10-10 20h03.00.274554 +0530,
57,0,57,0,117.80203489994165,,117.78028810000978,5,117.80203489994165,117.80203489994165,0.014136500074528158,120.0597332000034,[0.49537037037037035],[-0.1361111111111111],[1],[0],[0],[2.2655276999576017],['target'],DM,001,2024-10-10_19h58.50.672,visula search,2024.1.5,None,2024-10-10 20h03.00.274554 +0530,
58,0,58,0,120.08573799999431,,120.06302250002045,5,120.08573799999431,120.08573799999431,0.015463800053112209,123.85849450004753,[0.2490740740740741],[-0.46111111111111114],[1],[0],[0],[3.780385399935767],['target'],DM,001,2024-10-10_19h58.50.672,visula search,2024.1.5,None,2024-10-10 20h03.00.274554 +0530,
59,0,59,0,123.88573179999366,,123.86186980002094,5,123.88573179999366,123.88573179999366,0.016217300086282194,125.64146590000018,[0.2324074074074074],[0.2518518518518518],[1],[0],[0],[1.7637942000292242],['target'],DM,001,2024-10-10_19h58.50.672,visula search,2024.1.5,None,2024-10-10 20h03.00.274554 +0530,
60,0,60,0,125.68612039997242,,125.64451330003794,10,125.68612039997242,125.68612039997242,0.029560099937953055,127.20697669999208,[-0.34814814814814815],[0.2833333333333333],[1],[0],[0],[1.5332289999350905],['target'],DM,001,2024-10-10_19h58.50.672,visula search,2024.1.5,None,2024-10-10 20h03.00.274554 +0530,
61,0,61,0,127.2320813999977,,127.20954850001726,5,127.2320813999977,127.2320813999977,0.014723700005561113,128.89020699996036,[0.35833333333333334],[0.3111111111111111],[1],[0],[0],[1.6660986000206321],['target'],DM,001,2024-10-10_19h58.50.672,visula search,2024.1.5,None,2024-10-10 20h03.00.274554 +0530,
62,0,62,0,128.91418560000602,,128.89295340003446,5,128.91418560000602,128.91418560000602,0.013871599920094013,130.72289510001428,[-0.20185185185185187],[-0.25925925925925924],[1],[0],[0],[1.8162753999931738],['target'],DM,001,2024-10-10_19h58.50.672,visula search,2024.1.5,None,2024-10-10 20h03.00.274554 +0530,
63,0,63,0,130.7680886000162,,130.72582349996082,10,130.7680886000162,130.7680886000162,0.029722000006586313,132.8723566000117,[0.05185185185185185],[-0.32037037037037036],[1],[0],[0],[2.1170709000434726],['target'],DM,001,2024-10-10_19h58.50.672,visula search,2024.1.5,None,2024-10-10 20h03.00.274554 +0530,
64,0,64,0,132.89717809995636,,132.87502399994992,5,132.89717809995636,132.89717809995636,0.014577400055713952,135.3047588999616,[-0.17314814814814813],[-0.17685185185185184],[1],[0],[0],[2.415356699959375],['target'],DM,001,2024-10-10_19h58.50.672,visula search,2024.1.5,None,2024-10-10 20h03.00.274554 +0530,
65,0,65,0,135.35466509999242,,135.30851849995088,10,135.35466509999242,135.35466509999242,0.03400570002850145,136.40480470005423,[-0.06851851851851852],[-0.175],[1],[0],[0],[1.062700800015591],['target'],DM,001,2024-10-10_19h58.50.672,visula search,2024.1.5,None,2024-10-10 20h03.00.274554 +0530,
66,0,66,0,136.44752219994552,,136.40744640002958,10,136.44752219994552,136.44752219994552,0.02835809998214245,138.43725960003212,[-0.018518518518518517],[0.44537037037037036],[1],[0],[0],[2.001661300077103],['target'],DM,001,2024-10-10_19h58.50.672,visula search,2024.1.5,None,2024-10-10 20h03.00.274554 +0530,
67,0,67,0,138.46041519998107,,138.43981180002447,5,138.46041519998107,138.46041519998107,0.013575499993748963,141.0361533999676,[0.28888888888888886],[-0.40370370370370373],[1],[0],[0],[2.582962999935262],['target'],DM,001,2024-10-10_19h58.50.672,visula search,2024.1.5,None,2024-10-10 20h03.00.274554 +0530,
68,0,68,0,141.06330020003952,,141.03931909997482,5,141.06330020003952,141.06330020003952,0.016464800108224154,142.43581139994785,[0.3888888888888889],[0.06481481481481481],[1],[0],[0],[1.3804097999818623],['target'],DM,001,2024-10-10_19h58.50.672,visula search,2024.1.5,None,2024-10-10 20h03.00.274554 +0530,
69,0,69,0,142.4600845000241,,142.43867339997087,5,142.4600845000241,142.4600845000241,0.014164899941533804,143.7526221999433,[0.22870370370370371],[0.1537037037037037],[1],[0],[0],[1.2999289000872523],['target'],DM,001,2024-10-10_19h58.50.672,visula search,2024.1.5,None,2024-10-10 20h03.00.274554 +0530,
70,0,70,0,143.80083159997594,,143.756741899997,10,143.80083159997594,143.80083159997594,0.03277360007632524,146.05188000004273,[0.12222222222222222],[-0.23148148148148148],[1],[0],[0],[2.2628936999244615],['target'],DM,001,2024-10-10_19h58.50.672,visula search,2024.1.5,None,2024-10-10 20h03.00.274554 +0530,
71,0,71,0,146.07523720001336,,146.05444490001537,5,146.07523720001336,146.07523720001336,0.013692499953322113,147.7508590000216,[-0.13148148148148148],[0.36018518518518516],[1],[0],[0],[1.6829613000154495],['target'],DM,001,2024-10-10_19h58.50.672,visula search,2024.1.5,None,2024-10-10 20h03.00.274554 +0530,
72,0,72,0,147.79274229996372,,147.75395990000106,10,147.79274229996372,147.79274229996372,0.02763200004119426,149.80054299999028,[0.06851851851851852],[0.2796296296296296],[1],[0],[0],[2.0192820000229403],['target'],DM,001,2024-10-10_19h58.50.672,visula search,2024.1.5,None,2024-10-10 20h03.00.274554 +0530,
73,0,73,0,149.84037590003572,,149.80319699994288,10,149.84037590003572,149.84037590003572,0.025868500000797212,150.86689529998694,[0.0787037037037037],[0.13518518518518519],[1],[0],[0],[1.038013600045815],['target'],DM,001,2024-10-10_19h58.50.672,visula search,2024.1.5,None,2024-10-10 20h03.00.274554 +0530,
74,0,74,0,150.90941039996687,,150.8696519000223,10,150.90941039996687,150.90941039996687,0.02829429996199906,152.2331683000084,[-0.11574074074074074],[0.32592592592592595],[1],[0],[0],[1.335456999950111],['target'],DM,001,2024-10-10_19h58.50.672,visula search,2024.1.5,None,2024-10-10 20h03.00.274554 +0530,
75,0,75,0,152.27389860001858,,152.23577589995693,10,152.27389860001858,152.27389860001858,0.02661539998371154,154.86592500004917,[-0.09907407407407408],[0.19074074074074074],[1],[0],[0],[2.603598300018348],['target'],DM,001,2024-10-10_19h58.50.672,visula search,2024.1.5,None,2024-10-10 20h03.00.274554 +0530,
76,0,76,0,154.89943160000257,,154.87133879994508,5,154.89943160000257,154.89943160000257,0.02042680000886321,156.148054099991,[-0.4185185185185185],[0.025],[1],[0],[0],[1.2569824999663979],['target'],DM,001,2024-10-10_19h58.50.672,visula search,2024.1.5,None,2024-10-10 20h03.00.274554 +0530,
77,0,77,0,156.19396750000305,,156.15119849995244,10,156.19396750000305,156.19396750000305,0.030895800096914172,158.91387090005446,[0.44166666666666665],[-0.14722222222222223],[1],[0],[0],[2.7321366000687703],['target'],DM,001,2024-10-10_19h58.50.672,visula search,2024.1.5,None,2024-10-10 20h03.00.274554 +0530,
78,0,78,0,158.95429220004007,,158.91645350004546,10,158.95429220004007,158.95429220004007,0.026720500085502863,163.72911810001824,[-0.2490740740740741],[-0.45185185185185184],[1],[0],[0],[4.786145900026895],['target'],DM,001,2024-10-10_19h58.50.672,visula search,2024.1.5,None,2024-10-10 20h03.00.274554 +0530,
79,0,79,0,163.77311219996773,,163.73202310001943,10,163.77311219996773,163.77311219996773,0.029484500060789287,166.54472310002893,[-0.3416666666666667],[0.1685185185185185],[1],[0],[0],[2.78351500001736],['target'],DM,001,2024-10-10_19h58.50.672,visula search,2024.1.5,None,2024-10-10 20h03.00.274554 +0530,
80,0,80,0,166.5688197000418,,166.54747770004906,5,166.5688197000418,166.5688197000418,0.014144100015982985,167.92782189999707,[0.05],[-0.0824074074074074],[1],[0],[0],[1.3664378999965265],['target'],DM,001,2024-10-10_19h58.50.672,visula search,2024.1.5,None,2024-10-10 20h03.00.274554 +0530,
81,0,81,0,167.97093269997276,,167.9309244999895,10,167.97093269997276,167.97093269997276,0.028519999934360385,169.71070269995835,[0.007407407407407408],[-0.10740740740740741],[1],[0],[0],[1.7515631000278518],['target'],DM,001,2024-10-10_19h58.50.672,visula search,2024.1.5,None,2024-10-10 20h03.00.274554 +0530,
82,0,82,0,169.75369709997904,,169.7133342999732,10,169.75369709997904,169.75369709997904,0.027597999898716807,172.54330519994255,[0.19444444444444445],[0.48518518518518516],[1],[0],[0],[2.802577900001779],['target'],DM,001,2024-10-10_19h58.50.672,visula search,2024.1.5,None,2024-10-10 20h03.00.274554 +0530,
83,0,83,0,172.58357619994786,,172.54597940004896,10,172.58357619994786,172.58357619994786,0.026306099956855178,174.5094645000063,[-0.06851851851851852],[-0.2388888888888889],[1],[0],[0],[1.937363800010644],['target'],DM,001,2024-10-10_19h58.50.672,visula search,2024.1.5,None,2024-10-10 20h03.00.274554 +0530,
84,0,84,0,174.53304689994548,,174.51199140003882,5,174.53304689994548,174.53304689994548,0.013756899978034198,175.55888759996742,[-0.10648148148148148],[-0.21388888888888888],[1],[0],[0],[1.033297699992545],['target'],DM,001,2024-10-10_19h58.50.672,visula search,2024.1.5,None,2024-10-10 20h03.00.274554 +0530,
85,0,85,0,175.60091729997657,,175.56178390001878,10,175.60091729997657,175.60091729997657,0.027214400004595518,177.59154020005371,[0.040740740740740744],[-0.008333333333333333],[1],[0],[0],[2.0028183000395074],['target'],DM,001,2024-10-10_19h58.50.672,visula search,2024.1.5,None,2024-10-10 20h03.00.274554 +0530,
86,0,86,0,177.6320239000488,,177.59428620000836,10,177.6320239000488,177.6320239000488,0.02624669997021556,179.12449179997202,[0.22870370370370371],[0.08611111111111111],[1],[0],[0],[1.5041798999300227],['target'],DM,001,2024-10-10_19h58.50.672,visula search,2024.1.5,None,2024-10-10 20h03.00.274554 +0530,
87,0,87,0,179.16596110002138,,179.12736659997609,10,179.16596110002138,179.16596110002138,0.027367399889044464,181.72388559998944,[-0.0824074074074074],[0.49074074074074076],[1],[0],[0],[2.569436899968423],['target'],DM,001,2024-10-10_19h58.50.672,visula search,2024.1.5,None,2024-10-10 20h03.00.274554 +0530,
88,0,88,0,181.7469544999767,,181.72641749994364,5,181.7469544999767,181.7469544999767,0.013468499993905425,184.75578160001896,[0.45092592592592595],[-0.3425925925925926],[1],[0],[0],[3.016127199982293],['target'],DM,001,2024-10-10_19h58.50.672,visula search,2024.1.5,None,2024-10-10 20h03.00.274554 +0530,
89,0,89,0,184.79699699999765,,184.7588049999904,10,184.79699699999765,184.79699699999765,0.02707650000229478,186.70574809995014,[-0.46296296296296297],[-0.06944444444444445],[1],[0],[0],[1.9201716999523342],['target'],DM,001,2024-10-10_19h58.50.672,visula search,2024.1.5,None,2024-10-10 20h03.00.274554 +0530,
90,0,90,0,186.7472137999721,,186.70826830004808,10,186.7472137999721,186.7472137999721,0.027456499985419214,188.33793939999305,[0.23425925925925925],[0.005555555555555556],[1],[0],[0],[1.602424900047481],['target'],DM,001,2024-10-10_19h58.50.672,visula search,2024.1.5,None,2024-10-10 20h03.00.274554 +0530,
91,0,91,0,188.38288659998216,,188.34105269995052,10,188.38288659998216,188.38288659998216,0.02950439997948706,191.23716549994424,[-0.10092592592592593],[0.37407407407407406],[1],[0],[0],[2.8668130999431014],['target'],DM,001,2024-10-10_19h58.50.672,visula search,2024.1.5,None,2024-10-10 20h03.00.274554 +0530,
92,0,92,0,191.2780223999871,,191.23993259994313,10,191.2780223999871,191.2780223999871,0.026537399971857667,192.37030870001763,[-0.10648148148148148],[0.2861111111111111],[1],[0],[0],[1.1040599000407383],['target'],DM,001,2024-10-10_19h58.50.672,visula search,2024.1.5,None,2024-10-10 20h03.00.274554 +0530,
93,0,93,0,192.39408009999897,,192.37285659997724,5,192.39408009999897,192.39408009999897,0.013399999937973917,194.7187882999424,[0.20833333333333334],[-0.4111111111111111],[1],[0],[0],[2.332702299929224],['target'],DM,001,2024-10-10_19h58.50.672,visula search,2024.1.5,None,2024-10-10 20h03.00.274554 +0530,
94,0,94,0,194.7449943999527,,194.7217163000023,5,194.7449943999527,194.7449943999527,0.01519959990400821,196.301592099946,[0.3435185185185185],[-0.48703703703703705],[1],[0],[0],[1.5648287000367418],['target'],DM,001,2024-10-10_19h58.50.672,visula search,2024.1.5,None,2024-10-10 20h03.00.274554 +0530,
95,0,95,0,196.34847299999092,,196.3048769000452,10,196.34847299999092,196.34847299999092,0.029931899975053966,197.81822709995322,[-0.037037037037037035],[0.18333333333333332],[1],[0],[0],[1.483804399962537],['target'],DM,001,2024-10-10_19h58.50.672,visula search,2024.1.5,None,2024-10-10 20h03.00.274554 +0530,
96,0,96,0,197.84261669998523,,197.82090449996758,5,197.84261669998523,197.84261669998523,0.014003199990838766,199.31787080003414,[0.30648148148148147],[-0.13425925925925927],[1],[0],[0],[1.4831677000038326],['target'],DM,001,2024-10-10_19h58.50.672,visula search,2024.1.5,None,2024-10-10 20h03.00.274554 +0530,
97,0,97,0,199.36174189997837,,199.3208257999504,10,199.36174189997837,199.36174189997837,0.028175199986435473,200.43405779998284,[0.02962962962962963],[-0.11944444444444445],[1],[0],[0],[1.0853904000250623],['target'],DM,001,2024-10-10_19h58.50.672,visula search,2024.1.5,None,2024-10-10 20h03.00.274554 +0530,
98,0,98,0,200.47688750003,,200.43684580002446,10,200.47688750003,200.47688750003,0.028045899933204055,203.61649990000296,[-0.4185185185185185],[-0.4564814814814815],[1],[0],[0],[3.151824599946849],['target'],DM,001,2024-10-10_19h58.50.672,visula search,2024.1.5,None,2024-10-10 20h03.00.274554 +0530,
99,0,99,0,203.64182260003872,,203.61924110003747,5,203.64182260003872,203.64182260003872,0.014729599934071302,205.04943360004108,[-0.3648148148148148],[-0.11203703703703703],[1],[0],[0],[1.4156829999992624],['target'],DM,001,2024-10-10_19h58.50.672,visula search,2024.1.5,None,2024-10-10 20h03.00.274554 +0530,
100,0,100,0,205.07609979994595,,205.05253370001446,5,205.07609979994595,205.07609979994595,0.015812900033779442,206.3988962000003,[-0.024074074074074074],[0.2518518518518518],[1],[0],[0],[1.330807999940589],['target'],DM,001,2024-10-10_19h58.50.672,visula search,2024.1.5,None,2024-10-10 20h03.00.274554 +0530,
101,0,101,0,206.4439889000496,,206.40211739996448,10,206.4439889000496,206.4439889000496,0.028006300097331405,208.14848319999874,[0.3527777777777778],[-0.011111111111111112],[1],[0],[0],[1.7186955000506714],['target'],DM,001,2024-10-10_19h58.50.672,visula search,2024.1.5,None,2024-10-10 20h03.00.274554 +0530,
102,0,102,0,208.1736341000069,,208.15105830004904,5,208.1736341000069,208.1736341000069,0.014252000022679567,209.7645235999953,[0.3888888888888889],[0.36574074074074076],[1],[0],[0],[1.599417099962011],['target'],DM,001,2024-10-10_19h58.50.672,visula search,2024.1.5,None,2024-10-10 20h03.00.274554 +0530,
103,0,103,0,209.78946180001367,,209.76729059999343,5,209.78946180001367,209.78946180001367,0.014439799939282238,211.76401040004566,[-0.3851851851851852],[0.17407407407407408],[1],[0],[0],[1.9823850999819115],['target'],DM,001,2024-10-10_19h58.50.672,visula search,2024.1.5,None,2024-10-10 20h03.00.274554 +0530,
104,0,104,0,211.80994519998785,,211.76744700002018,10,211.80994519998785,211.80994519998785,0.030056599993258715,212.74640049994923,[-0.45740740740740743],[0.28703703703703703],[1],[0],[0],[0.9492705999873579],['target'],DM,001,2024-10-10_19h58.50.672,visula search,2024.1.5,None,2024-10-10 20h03.00.274554 +0530,
105,0,105,0,212.78908050002065,,212.749137399951,10,212.78908050002065,212.78908050002065,0.027294600033201277,215.47907430003397,[-0.4462962962962963],[-0.44351851851851853],[1],[0],[0],[2.702881700010039],['target'],DM,001,2024-10-10_19h58.50.672,visula search,2024.1.5,None,2024-10-10 20h03.00.274554 +0530,
106,0,106,0,215.52348039997742,,215.48217600001954,10,215.52348039997742,215.52348039997742,0.028906899970024824,216.7120072999969,[-0.2814814814814815],[-0.32222222222222224],[1],[0],[0],[1.2013101999182254],['target'],DM,001,2024-10-10_19h58.50.672,visula search,2024.1.5,None,2024-10-10 20h03.00.274554 +0530,
107,0,107,0,216.7380271999864,,216.71483379998244,5,216.7380271999864,216.7380271999864,0.015107000013813376,218.09513260005042,[0.2851851851851852],[0.10555555555555556],[1],[0],[0],[1.3653259000275284],['target'],DM,001,2024-10-10_19h58.50.672,visula search,2024.1.5,None,2024-10-10 20h03.00.274554 +0530,
108,0,108,0,218.14005209994502,,218.09870710002724,10,218.14005209994502,218.14005209994502,0.028872499940916896,220.47778129996732,[-0.006481481481481481],[-0.25555555555555554],[1],[0],[0],[2.3506503999233246],['target'],DM,001,2024-10-10_19h58.50.672,visula search,2024.1.5,None,2024-10-10 20h03.00.274554 +0530,
109,0,109,0,220.51923610002268,,220.48065209994093,10,220.51923610002268,220.51923610002268,0.027590899961069226,222.06053739995696,[-0.34629629629629627],[-0.028703703703703703],[1],[0],[0],[1.5524552999995649],['target'],DM,001,2024-10-10_19h58.50.672,visula search,2024.1.5,None,2024-10-10 20h03.00.274554 +0530,
110,0,110,0,222.0845284999814,,222.06335139996372,5,222.0845284999814,222.0845284999814,0.013628599932417274,223.55998839996755,[0.26296296296296295],[-0.1962962962962963],[1],[0],[0],[1.483271099976264],['target'],DM,001,2024-10-10_19h58.50.672,visula search,2024.1.5,None,2024-10-10 20h03.00.274554 +0530,
111,0,111,0,223.60568279994186,,223.56342400005087,10,223.60568279994186,223.60568279994186,0.03059840004425496,225.65916749997996,[-0.49074074074074076],[0.03148148148148148],[1],[0],[0],[2.0655564999906346],['target'],DM,001,2024-10-10_19h58.50.672,visula search,2024.1.5,None,2024-10-10 20h03.00.274554 +0530,
112,0,112,0,225.70090860000346,,225.6620481000282,10,225.70090860000346,225.70090860000346,0.02721699990797788,226.8429362999741,[-0.18055555555555555],[0.23796296296296296],[1],[0],[0],[1.1539644999429584],['target'],DM,001,2024-10-10_19h58.50.672,visula search,2024.1.5,None,2024-10-10 20h03.00.274554 +0530,
113,0,113,0,226.8855232000351,,226.84567900002003,10,226.8855232000351,226.8855232000351,0.027453299961052835,227.9756245999597,[-0.10462962962962963],[0.19537037037037036],[1],[0],[0],[1.1026954000117257],['target'],DM,001,2024-10-10_19h58.50.672,visula search,2024.1.5,None,2024-10-10 20h03.00.274554 +0530,
114,0,114,0,228.01788059994578,,227.9781942999689,10,228.01788059994578,228.01788059994578,0.02686419989913702,230.24106449994724,[0.24814814814814815],[-0.33055555555555555],[1],[0],[0],[2.236262800055556],['target'],DM,001,2024-10-10_19h58.50.672,visula search,2024.1.5,None,2024-10-10 20h03.00.274554 +0530,
115,0,115,0,230.26570400001947,,230.2437533000484,5,230.26570400001947,230.26570400001947,0.014514700043946505,231.77373310003895,[-0.3537037037037037],[-0.41759259259259257],[1],[0],[0],[1.5156707999994978],['target'],DM,001,2024-10-10_19h58.50.672,visula search,2024.1.5,None,2024-10-10 20h03.00.274554 +0530,
116,0,116,0,231.817354699946,,231.77678349998314,10,231.817354699946,231.817354699946,0.029042899957858026,233.72375939995982,[0.2462962962962963],[0.4185185185185185],[1],[0],[0],[1.9182324999710545],['target'],DM,001,2024-10-10_19h58.50.672,visula search,2024.1.5,None,2024-10-10 20h03.00.274554 +0530,
117,0,117,0,233.7658471999457,,233.72635959996842,10,233.7658471999457,233.7658471999457,0.027629500022158027,235.0062239000108,[-0.0824074074074074],[0.2601851851851852],[1],[0],[0],[1.2524601001059636],['target'],DM,001,2024-10-10_19h58.50.672,visula search,2024.1.5,None,2024-10-10 20h03.00.274554 +0530,
118,0,118,0,235.04968119994737,,235.00890170002822,10,235.04968119994737,235.04968119994737,0.027991100098006427,237.12257220002357,[0.29259259259259257],[-0.28055555555555556],[1],[0],[0],[2.0858886999776587],['target'],DM,001,2024-10-10_19h58.50.672,visula search,2024.1.5,None,2024-10-10 20h03.00.274554 +0530,
119,0,119,0,237.16593280003872,,237.12533199996687,10,237.16593280003872,237.16593280003872,0.02880239998921752,239.85495119995903,[-0.4064814814814815],[0.25277777777777777],[1],[0],[0],[2.701050400035456],['target'],DM,001,2024-10-10_19h58.50.672,visula search,2024.1.5,None,2024-10-10 20h03.00.274554 +0530,
120,0,120,0,239.8788708000211,,239.8576366000343,5,239.8788708000211,239.8788708000211,0.013711999985389411,244.76975720003247,[0.40185185185185185],[-0.45],[1],[0],[0],[4.8986408999189734],['target'],DM,001,2024-10-10_19h58.50.672,visula search,2024.1.5,None,2024-10-10 20h03.00.274554 +0530,
121,0,121,0,244.81388789997436,,244.77262629999314,10,244.81388789997436,244.81388789997436,0.028204900096170604,246.702333800029,[-0.40370370370370373],[-0.44074074074074077],[1],[0],[0],[1.9018043999094516],['target'],DM,001,2024-10-10_19h58.50.672,visula search,2024.1.5,None,2024-10-10 20h03.00.274554 +0530,
122,0,122,0,246.72772279998753,,246.70509980001952,5,246.72772279998753,246.72772279998753,0.014908700017258525,248.46844580001198,[0.03611111111111111],[0.0962962962962963],[1],[0],[0],[1.7486986999865621],['target'],DM,001,2024-10-10_19h58.50.672,visula search,2024.1.5,None,2024-10-10 20h03.00.274554 +0530,
123,0,123,0,248.49353710003197,,248.47159329999704,5,248.49353710003197,248.49353710003197,0.014676099992357194,250.46750609995797,[-0.14444444444444443],[-0.23148148148148148],[1],[0],[0],[1.9815517000388354],['target'],DM,001,2024-10-10_19h58.50.672,visula search,2024.1.5,None,2024-10-10 20h03.00.274554 +0530,
124,0,124,0,250.49370270001236,,250.47075239999685,5,250.49370270001236,250.49370270001236,0.01561310002580285,250.91732020000927,[-0.14444444444444443],[-0.23148148148148148],[1],[0],[0],[0.43130389996804297],[],DM,001,2024-10-10_19h58.50.672,visula search,2024.1.5,None,2024-10-10 20h03.00.274554 +0530,
125,0,125,0,250.9447709999513,,250.92076590005308,5,250.9447709999513,250.9447709999513,0.016712000011466444,252.8001434999751,[-0.44537037037037036],[0.4101851851851852],[1],[0],[0],[1.8631118000485003],['target'],DM,001,2024-10-10_19h58.50.672,visula search,2024.1.5,None,2024-10-10 20h03.00.274554 +0530,
126,0,126,0,252.84430100000463,,252.80330519995186,10,252.84430100000463,252.84430100000463,0.029627099982462823,254.1005447000498,[0.14444444444444443],[0.24722222222222223],[1],[0],[0],[1.2678454000269994],['target'],DM,001,2024-10-10_19h58.50.672,visula search,2024.1.5,None,2024-10-10 20h03.00.274554 +0530,
127,0,127,0,254.12653619993944,,254.10334389994387,5,254.12653619993944,254.12653619993944,0.015146799967624247,255.38318520004395,[-0.06481481481481481],[0.19722222222222222],[1],[0],[0],[1.2648702999576926],['target'],DM,001,2024-10-10_19h58.50.672,visula search,2024.1.5,None,2024-10-10 20h03.00.274554 +0530,
128,0,128,0,255.4278310999507,,255.3865167000331,10,255.4278310999507,255.4278310999507,0.029465200030244887,257.68234109994955,[0.24074074074074073],[-0.18611111111111112],[1],[0],[0],[2.2668285000836477],['target'],DM,001,2024-10-10_19h58.50.672,visula search,2024.1.5,None,2024-10-10 20h03.00.274554 +0530,
129,0,129,0,257.7059007999487,,257.6850800999673,5,257.7059007999487,257.7059007999487,0.01355840009637177,258.99834609997924,[-0.4361111111111111],[0.05555555555555555],[1],[0],[0],[1.2999639000045136],['target'],DM,001,2024-10-10_19h58.50.672,visula search,2024.1.5,None,2024-10-10 20h03.00.274554 +0530,
130,0,130,0,259.0432137999451,,259.00154810003005,10,259.0432137999451,259.0432137999451,0.030000100028701127,260.9981680000201,[-0.06944444444444445],[-0.24722222222222223],[1],[0],[0],[1.9667390999384224],['target'],DM,001,2024-10-10_19h58.50.672,visula search,2024.1.5,None,2024-10-10 20h03.00.274554 +0530,
131,0,131,0,261.02373719995376,,261.00093650002964,5,261.02373719995376,261.02373719995376,0.014676899998448789,262.4641909999773,[0.4638888888888889],[-0.2574074074074074],[1],[0],[0],[1.4487745999358594],['target'],DM,001,2024-10-10_19h58.50.672,visula search,2024.1.5,None,2024-10-10 20h03.00.274554 +0530,
132,0,132,0,262.49223259999417,,262.4675807999447,5,262.49223259999417,262.49223259999417,0.01604409993160516,270.1449174999725,[-0.2712962962962963],[-0.34629629629629627],[1],[0],[0],[7.661527799908072],['target'],DM,001,2024-10-10_19h58.50.672,visula search,2024.1.5,None,2024-10-10 20h03.00.274554 +0530,
133,0,133,0,270.17399210005533,,270.14908340002876,5,270.17399210005533,270.17399210005533,0.01770980004221201,272.31049519998487,[-0.004629629629629629],[0.06388888888888888],[1],[0],[0],[2.1443700999952853],['target'],DM,001,2024-10-10_19h58.50.672,visula search,2024.1.5,None,2024-10-10 20h03.00.274554 +0530,
134,0,134,0,272.33464480005205,,272.31343049998395,5,272.33464480005205,272.33464480005205,0.01369149994570762,273.8267985000275,[0.4305555555555556],[0.2222222222222222],[1],[0],[0],[1.4999478999525309],['target'],DM,001,2024-10-10_19h58.50.672,visula search,2024.1.5,None,2024-10-10 20h03.00.274554 +0530,
135,0,135,0,273.85502390004694,,273.83013649994973,5,273.85502390004694,273.85502390004694,0.01723519992083311,276.376487200032,[-0.26481481481481484],[0.11018518518518519],[1],[0],[0],[2.5294425999745727],['target'],DM,001,2024-10-10_19h58.50.672,visula search,2024.1.5,None,2024-10-10 20h03.00.274554 +0530,
136,0,136,0,276.41877200000454,,276.3794369000243,10,276.41877200000454,276.41877200000454,0.028087200014851987,278.39207479998004,[-0.05925925925925926],[-0.1814814814814815],[1],[0],[0],[1.9848397999303415],['target'],DM,001,2024-10-10_19h58.50.672,visula search,2024.1.5,None,2024-10-10 20h03.00.274554 +0530,
137,0,137,0,278.41780769999605,,278.3949837000109,5,278.41780769999605,278.41780769999605,0.01499679998960346,279.7754134000279,[-0.362962962962963],[-0.262037037037037],[1],[0],[0],[1.3656583999982104],['target'],DM,001,2024-10-10_19h58.50.672,visula search,2024.1.5,None,2024-10-10 20h03.00.274554 +0530,
138,0,138,0,279.80096819996834,,279.7782050999813,5,279.80096819996834,279.80096819996834,0.014850500039756298,281.8576354000252,[0.30833333333333335],[0.4398148148148148],[1],[0],[0],[2.0648126000305638],['target'],DM,001,2024-10-10_19h58.50.672,visula search,2024.1.5,None,2024-10-10 20h03.00.274554 +0530,
139,0,139,0,281.89884000003804,,281.8605405000271,10,281.89884000003804,281.89884000003804,0.027035600040107965,286.6727897999808,[0.4861111111111111],[0.487962962962963],[1],[0],[0],[4.785491400049068],['target'],DM,001,2024-10-10_19h58.50.672,visula search,2024.1.5,None,2024-10-10 20h03.00.274554 +0530,
140,0,140,0,286.71468840003945,,286.67565410002135,10,286.71468840003945,286.71468840003945,0.027317100088112056,288.6227413000306,[0.008333333333333333],[-0.2],[1],[0],[0],[1.920005299965851],['target'],DM,001,2024-10-10_19h58.50.672,visula search,2024.1.5,None,2024-10-10 20h03.00.274554 +0530,
141,0,141,0,288.66269370005466,,288.62530229997355,10,288.66269370005466,288.66269370005466,0.025940299965441227,291.22116139996797,[-0.3509259259259259],[0.2861111111111111],[1],[0],[0],[2.570148899918422],['target'],DM,001,2024-10-10_19h58.50.672,visula search,2024.1.5,None,2024-10-10 20h03.00.274554 +0530,
142,0,142,0,291.26184589997865,,291.2238848999841,10,291.26184589997865,291.26184589997865,0.026512200012803078,293.2044196999632,[0.2898148148148148],[0.11666666666666667],[1],[0],[0],[1.9541883999481797],['target'],DM,001,2024-10-10_19h58.50.672,visula search,2024.1.5,None,2024-10-10 20h03.00.274554 +0530,
143,0,143,0,293.22984970000107,,293.2073101999704,5,293.22984970000107,293.22984970000107,0.014825499965809286,295.2368068000069,[-0.16666666666666666],[-0.3351851851851852],[1],[0],[0],[2.014790500048548],['target'],DM,001,2024-10-10_19h58.50.672,visula search,2024.1.5,None,2024-10-10 20h03.00.274554 +0530,
144,0,144,0,295.2807814000407,,295.23989920003805,10,295.2807814000407,295.2807814000407,0.029355900012888014,296.43686420004815,[-0.25925925925925924],[-0.44814814814814813],[1],[0],[0],[1.1679957999149337],['target'],DM,001,2024-10-10_19h58.50.672,visula search,2024.1.5,None,2024-10-10 20h03.00.274554 +0530,
145,0,145,0,296.47919260000344,,296.43937479995657,10,296.47919260000344,296.47919260000344,0.02801379992160946,298.55302560003474,[-0.3333333333333333],[0.38425925925925924],[1],[0],[0],[2.0858493000268936],['target'],DM,001,2024-10-10_19h58.50.672,visula search,2024.1.5,None,2024-10-10 20h03.00.274554 +0530,
146,0,146,0,298.57822330005,,298.5558944999939,5,298.57822330005,298.57822330005,0.014190500020049512,300.45156339998357,[-0.022222222222222223],[0.19074074074074074],[1],[0],[0],[1.881808100035414],['target'],DM,001,2024-10-10_19h58.50.672,visula search,2024.1.5,None,2024-10-10 20h03.00.274554 +0530,
147,0,147,0,300.494178700028,,300.4545050000306,10,300.494178700028,300.494178700028,0.028081599972210824,303.0672480999492,[-0.22870370370370371],[-0.44537037037037036],[1],[0],[0],[2.5850439000641927],['target'],DM,001,2024-10-10_19h58.50.672,visula search,2024.1.5,None,2024-10-10 20h03.00.274554 +0530,
148,0,148,0,303.09292319999076,,303.07004559994675,5,303.09292319999076,303.09292319999076,0.015108400024473667,305.1834351000143,[0.05462962962962963],[-0.2037037037037037],[1],[0],[0],[2.098503199988045],['target'],DM,001,2024-10-10_19h58.50.672,visula search,2024.1.5,None,2024-10-10 20h03.00.274554 +0530,
149,0,149,0,305.2084751999937,,305.1864696999546,5,305.2084751999937,305.2084751999937,0.014633300015702844,306.61613720003515,[-0.27685185185185185],[-0.17777777777777778],[1],[0],[0],[1.4152362999739125],['target'],DM,001,2024-10-10_19h58.50.672,visula search,2024.1.5,None,2024-10-10 20h03.00.274554 +0530,
150,0,150,0,306.6600493999431,,306.61913530004676,10,306.6600493999431,306.6600493999431,0.029619600041769445,310.5816783000482,[0.03425925925925926],[-0.17222222222222222],[1],[0],[0],[3.933259000070393],['target'],DM,001,2024-10-10_19h58.50.672,visula search,2024.1.5,None,2024-10-10 20h03.00.274554 +0530,
151,0,151,0,310.607119500055,,310.5844492999604,5,310.607119500055,310.607119500055,0.01530039997305721,312.0810771000106,[-0.3435185185185185],[-0.10277777777777777],[1],[0],[0],[1.481441400013864],['target'],DM,001,2024-10-10_19h58.50.672,visula search,2024.1.5,None,2024-10-10 20h03.00.274554 +0530,
152,0,152,0,312.12786350003444,,312.08471980004106,10,312.12786350003444,312.12786350003444,0.031699699931778014,314.0806525000371,[-0.06666666666666667],[0.34444444444444444],[1],[0],[0],[1.9646776999579743],['target'],DM,001,2024-10-10_19h58.50.672,visula search,2024.1.5,None,2024-10-10 20h03.00.274554 +0530,
153,0,153,0,314.10428680002224,,314.0833473999519,5,314.10428680002224,314.10428680002224,0.01346919999923557,315.71346310002264,[0.3194444444444444],[0.44166666666666665],[1],[0],[0],[1.616779200034216],['target'],DM,001,2024-10-10_19h58.50.672,visula search,2024.1.5,None,2024-10-10 20h03.00.274554 +0530,
154,0,154,0,315.75684030004777,,315.71667310001794,10,315.75684030004777,315.75684030004777,0.029052999918349087,317.7129193999572,[-0.1935185185185185],[0.23055555555555557],[1],[0],[0],[1.967556199990213],['target'],DM,001,2024-10-10_19h58.50.672,visula search,2024.1.5,None,2024-10-10 20h03.00.274554 +0530,
155,0,155,0,317.7364896000363,,317.7154394000536,5,317.7364896000363,317.7364896000363,0.013599899946711957,319.496082299971,[-0.012037037037037037],[-0.08518518518518518],[1],[0],[0],[1.7672173000173643],['target'],DM,001,2024-10-10_19h58.50.672,visula search,2024.1.5,None,2024-10-10 20h03.00.274554 +0530,
156,0,156,0,319.5407736999914,,319.4991159000201,10,319.5407736999914,319.5407736999914,0.030070099979639053,321.6114254000131,[-0.08518518518518518],[0.4787037037037037],[1],[0],[0],[2.082540399977006],['target'],DM,001,2024-10-10_19h58.50.672,visula search,2024.1.5,None,2024-10-10 20h03.00.274554 +0530,
157,0,157,0,321.65276299999095,,321.614301100024,10,321.65276299999095,321.65276299999095,0.026675799977965653,323.8448611999629,[-0.4759259259259259],[0.32037037037037036],[1],[0],[0],[2.2041955000022426],['target'],DM,001,2024-10-10_19h58.50.672,visula search,2024.1.5,None,2024-10-10 20h03.00.274554 +0530,
158,0,158,0,323.87004109995905,,323.8474252000451,5,323.87004109995905,323.87004109995905,0.014663100009784102,325.02726829994936,[-0.3537037037037037],[0.25277777777777777],[1],[0],[0],[1.165390699985437],['target'],DM,001,2024-10-10_19h58.50.672,visula search,2024.1.5,None,2024-10-10 20h03.00.274554 +0530,
159,0,159,0,325.0514351000311,,325.0302026999416,5,325.0514351000311,325.0514351000311,0.013945500017143786,326.5431278999895,[-0.48148148148148145],[-0.15555555555555556],[1],[0],[0],[1.499218299984932],['target'],DM,001,2024-10-10_19h58.50.672,visula search,2024.1.5,None,2024-10-10 20h03.00.274554 +0530,
160,0,160,0,326.5703141000122,,326.546298500034,5,326.5703141000122,326.5703141000122,0.015781300025992095,328.4255155000137,[0.4722222222222222],[0.2796296296296296],[1],[0],[0],[1.863760199979879],[],DM,001,2024-10-10_19h58.50.672,visula search,2024.1.5,None,2024-10-10 20h03.00.274554 +0530,
161,0,161,0,328.47044299996924,,328.42926899995655,10,328.47044299996924,328.47044299996924,0.03023629996459931,330.7087088000262,[-0.2861111111111111],[-0.4546296296296296],[1],[0],[0],[2.2496822000248358],['target'],DM,001,2024-10-10_19h58.50.672,visula search,2024.1.5,None,2024-10-10 20h03.00.274554 +0530,
162,0,162,0,330.8198356999783,,330.7114646999398,10,330.8198356999783,330.8198356999783,0.09496129991021007,332.4250378999859,[-0.42685185185185187],[0.05185185185185185],[1],[0],[0],[1.6187281000893563],['target'],DM,001,2024-10-10_19h58.50.672,visula search,2024.1.5,None,2024-10-10 20h03.00.274554 +0530,
163,0,163,0,332.46659490000457,,332.42780019994825,10,332.46659490000457,332.46659490000457,0.02701560000423342,338.3232556999428,[0.3351851851851852],[-0.4111111111111111],[1],[0],[0],[5.86843059991952],['target'],DM,001,2024-10-10_19h58.50.672,visula search,2024.1.5,None,2024-10-10 20h03.00.274554 +0530,
164,0,164,0,338.3480117999716,,338.3260579999769,5,338.3480117999716,338.3480117999716,0.01458039996214211,342.189130499959,[0.2074074074074074],[-0.2722222222222222],[1],[0],[0],[3.8486868999898434],['target'],DM,001,2024-10-10_19h58.50.672,visula search,2024.1.5,None,2024-10-10 20h03.00.274554 +0530,
165,0,165,0,342.2328534000553,,342.1926872000331,10,342.2328534000553,342.2328534000553,0.02944860002025962,343.40437979996204,[0.1175925925925926],[-0.12777777777777777],[1],[0],[0],[1.1826839999994263],['target'],DM,001,2024-10-10_19h58.50.672,visula search,2024.1.5,None,2024-10-10 20h03.00.274554 +0530,
166,0,166,0,343.44472350005526,,343.407016400015,10,343.44472350005526,343.44472350005526,0.0261664999416098,345.43750809994526,[-0.41574074074074074],[-0.08518518518518518],[1],[0],[0],[2.0045321999350563],['target'],DM,001,2024-10-10_19h58.50.672,visula search,2024.1.5,None,2024-10-10 20h03.00.274554 +0530,
167,0,167,0,345.4815032000188,,345.44049259996973,10,345.4815032000188,345.4815032000188,0.029134800075553358,347.4701437000185,[0.462037037037037],[-0.012962962962962963],[1],[0],[0],[2.000990000087768],['target'],DM,001,2024-10-10_19h58.50.672,visula search,2024.1.5,None,2024-10-10 20h03.00.274554 +0530,
168,0,168,0,347.5103903999552,,347.47269229998346,10,347.5103903999552,347.5103903999552,0.025745299994014204,349.56926559994463,[0.06111111111111111],[-0.09351851851851851],[1],[0],[0],[2.07103939994704],['target'],DM,001,2024-10-10_19h58.50.672,visula search,2024.1.5,None,2024-10-10 20h03.00.274554 +0530,
169,0,169,0,349.61107570002787,,349.5721340000164,10,349.61107570002787,349.61107570002787,0.026732999947853386,351.2357800999889,[-0.4425925925925926],[-0.2175925925925926],[1],[0],[0],[1.6372110999654979],['target'],DM,001,2024-10-10_19h58.50.672,visula search,2024.1.5,None,2024-10-10 20h03.00.274554 +0530,
170,0,170,0,351.2617576000048,,351.23846629995387,5,351.2617576000048,351.2617576000048,0.014994299970567226,352.7517877999926,[-0.24074074074074073],[0.19814814814814816],[1],[0],[0],[1.4985020000021905],['target'],DM,001,2024-10-10_19h58.50.672,visula search,2024.1.5,None,2024-10-10 20h03.00.274554 +0530,
171,0,171,0,352.77971020003315,,352.7551394000184,5,352.77971020003315,352.77971020003315,0.01666189997922629,354.251670800033,[-0.06759259259259259],[0.41944444444444445],[1],[0],[0],[1.4801832999801263],['target'],DM,001,2024-10-10_19h58.50.672,visula search,2024.1.5,None,2024-10-10 20h03.00.274554 +0530,
172,0,172,0,354.2774117999943,,354.2550262999721,5,354.2774117999943,354.2774117999943,0.015276300022378564,355.5339976999676,[-0.10925925925925926],[0.18888888888888888],[1],[0],[0],[1.264101699925959],['target'],DM,001,2024-10-10_19h58.50.672,visula search,2024.1.5,None,2024-10-10 20h03.00.274554 +0530,
173,0,173,0,355.5594889000058,,355.53687559999526,5,355.5594889000058,355.5594889000058,0.014660999993793666,357.350475299987,[0.09722222222222222],[-0.12037037037037036],[1],[0],[0],[1.7991725000320002],['target'],DM,001,2024-10-10_19h58.50.672,visula search,2024.1.5,None,2024-10-10 20h03.00.274554 +0530,
174,0,174,0,357.3949924999615,,357.35346400004346,10,357.3949924999615,357.3949924999615,0.02937900007236749,358.66656140005216,[0.21851851851851853],[0.125],[1],[0],[0],[1.284032400115393],['target'],DM,001,2024-10-10_19h58.50.672,visula search,2024.1.5,None,2024-10-10 20h03.00.274554 +0530,
175,0,175,0,358.70677189994603,,358.66915570001584,10,358.70677189994603,358.70677189994603,0.025952600059099495,359.8828893000027,[0.275],[0.09907407407407408],[1],[0],[0],[1.187964400043711],['target'],DM,001,2024-10-10_19h58.50.672,visula search,2024.1.5,None,2024-10-10 20h03.00.274554 +0530,
176,0,176,0,359.90561130002607,,359.885453099967,5,359.90561130002607,359.90561130002607,0.013002400053665042,362.16525670001283,[-0.07222222222222222],[0.2759259259259259],[1],[0],[0],[2.266938599990681],['target'],DM,001,2024-10-10_19h58.50.672,visula search,2024.1.5,None,2024-10-10 20h03.00.274554 +0530,
177,0,177,0,362.18974950001575,,362.1683150000172,5,362.18974950001575,362.18974950001575,0.014156399993225932,363.73149110004306,[0.44814814814814813],[0.11666666666666667],[1],[0],[0],[1.5493199999909848],['target'],DM,001,2024-10-10_19h58.50.672,visula search,2024.1.5,None,2024-10-10 20h03.00.274554 +0530,
178,0,178,0,363.7577611999586,,363.7342980999965,5,363.7577611999586,363.7577611999586,0.015674900030717254,364.71435849997215,[0.04722222222222222],[0.08703703703703704],[1],[0],[0],[0.9646871000295505],['target'],DM,001,2024-10-10_19h58.50.672,visula search,2024.1.5,None,2024-10-10 20h03.00.274554 +0530,
179,0,179,0,364.7402721999679,,364.71712579997256,5,364.7402721999679,364.7402721999679,0.014842499978840351,366.8305380999809,[-0.09444444444444444],[-0.2935185185185185],[1],[0],[0],[2.0987658000085503],['target'],DM,001,2024-10-10_19h58.50.672,visula search,2024.1.5,None,2024-10-10 20h03.00.274554 +0530,
180,0,180,0,366.8552799000172,,366.83324039995205,5,366.8552799000172,366.8552799000172,0.01454490004107356,367.9132271000417,[0.1638888888888889],[-0.28888888888888886],[1],[0],[0],[1.0656286999583244],['target'],DM,001,2024-10-10_19h58.50.672,visula search,2024.1.5,None,2024-10-10 20h03.00.274554 +0530,
181,0,181,0,367.9413637999678,,367.9162742999615,5,367.9413637999678,367.9413637999678,0.017162299947813153,369.7294350999873,[0.14351851851851852],[0.43796296296296294],[1],[0],[0],[1.796340400003828],['target'],DM,001,2024-10-10_19h58.50.672,visula search,2024.1.5,None,2024-10-10 20h03.00.274554 +0530,
182,0,182,0,369.772327600047,,369.732690099976,10,369.772327600047,369.772327600047,0.02824969997163862,373.5944358999841,[0.05740740740740741],[0.019444444444444445],[1],[0],[0],[3.833842399995774],['target'],DM,001,2024-10-10_19h58.50.672,visula search,2024.1.5,None,2024-10-10 20h03.00.274554 +0530,
183,0,183,0,373.6198827000335,,373.5972598999506,5,373.6198827000335,373.6198827000335,0.014939999906346202,374.8605319999624,[0.22314814814814815],[-0.11481481481481481],[1],[0],[0],[1.2485823000315577],[],DM,001,2024-10-10_19h58.50.672,visula search,2024.1.5,None,2024-10-10 20h03.00.274554 +0530,
184,0,184,0,374.8864978000056,,374.86354219994973,5,374.8864978000056,374.8864978000056,0.015495900064706802,376.1439397999784,[0.07962962962962963],[-0.2351851851851852],[1],[0],[0],[1.26519659999758],['target'],DM,001,2024-10-10_19h58.50.672,visula search,2024.1.5,None,2024-10-10 20h03.00.274554 +0530,
185,0,185,0,376.18605979997665,,376.1472673000535,10,376.18605979997665,376.18605979997665,0.0273107000393793,377.92677719995845,[-0.47129629629629627],[-0.4074074074074074],[1],[0],[0],[1.7525682999985293],['target'],DM,001,2024-10-10_19h58.50.672,visula search,2024.1.5,None,2024-10-10 20h03.00.274554 +0530,
186,0,186,0,377.9668654999696,,377.9294291000115,10,377.9668654999696,377.9668654999696,0.025817999965511262,379.8925214000046,[0.20833333333333334],[-0.17314814814814813],[1],[0],[0],[1.9375116999726743],['target'],DM,001,2024-10-10_19h58.50.672,visula search,2024.1.5,None,2024-10-10 20h03.00.274554 +0530,
187,0,187,0,379.9152744000312,,379.89505609998014,5,379.9152744000312,379.9152744000312,0.013000400038436055,380.9928770000115,[0.06851851851851852],[-0.075],[1],[0],[0],[1.0847402000799775],['target'],DM,001,2024-10-10_19h58.50.672,visula search,2024.1.5,None,2024-10-10 20h03.00.274554 +0530,
188,0,188,0,381.04237689997535,,380.99901569995563,5,381.04237689997535,381.04237689997535,0.029370800009928644,382.75809050002135,[0.3277777777777778],[0.33425925925925926],[1],[0],[0],[1.7308068999554962],['target'],DM,001,2024-10-10_19h58.50.672,visula search,2024.1.5,None,2024-10-10 20h03.00.274554 +0530,
189,0,189,0,382.79367160005495,,382.76126689999364,5,382.79367160005495,382.79367160005495,0.020411000004969537,384.00775109999813,[-0.06388888888888888],[-0.001851851851851852],[1],[0],[0],[1.226418299949728],[],DM,001,2024-10-10_19h58.50.672,visula search,2024.1.5,None,2024-10-10 20h03.00.274554 +0530,
190,0,190,0,384.07022730004974,,384.01177480001934,10,384.07022730004974,384.07022730004974,0.04165939998347312,387.19030110002495,[-0.28888888888888886],[-0.18333333333333332],[1],[0],[0],[3.1375419000396505],[],DM,001,2024-10-10_19h58.50.672,visula search,2024.1.5,None,2024-10-10 20h03.00.274554 +0530,
191,0,191,0,387.21447340003215,,387.1928356999997,5,387.21447340003215,387.21447340003215,0.014566099969670177,388.34048779995646,[0.08425925925925926],[-0.2916666666666667],[1],[0],[0],[1.1330768999177963],['target'],DM,001,2024-10-10_19h58.50.672,visula search,2024.1.5,None,2024-10-10 20h03.00.274554 +0530,
192,0,192,0,388.3939649000531,,388.34596249996684,10,388.3939649000531,388.3939649000531,0.03756859991699457,390.60598939994816,[-0.39166666666666666],[-0.3592592592592593],[1],[0],[0],[2.223309100023471],['target'],DM,001,2024-10-10_19h58.50.672,visula search,2024.1.5,None,2024-10-10 20h03.00.274554 +0530,
193,0,193,0,390.6294035000028,,390.6085478999885,5,390.6294035000028,390.6294035000028,0.013159399968571961,392.52215570001863,[-0.3675925925925926],[0.38796296296296295],[1],[0],[0],[1.9006114000221714],['target'],DM,001,2024-10-10_19h58.50.672,visula search,2024.1.5,None,2024-10-10 20h03.00.274554 +0530,
194,0,194,0,392.5486043000128,,392.52537629997823,5,392.5486043000128,392.5486043000128,0.01584869995713234,393.8716489999788,[0.3138888888888889],[0.13240740740740742],[1],[0],[0],[1.3307642999570817],['target'],DM,001,2024-10-10_19h58.50.672,visula search,2024.1.5,None,2024-10-10 20h03.00.274554 +0530,
195,0,195,0,393.8978524999693,,393.87482649995945,5,393.8978524999693,393.8978524999693,0.015937200048938394,395.07133669999894,[0.44537037037037036],[0.3111111111111111],[1],[0],[0],[1.1809080999810249],['target'],DM,001,2024-10-10_19h58.50.672,visula search,2024.1.5,None,2024-10-10 20h03.00.274554 +0530,
196,0,196,0,395.0977488999488,,395.0744863,5,395.0977488999488,395.0977488999488,0.015282600070349872,396.5874590999447,[-0.4759259259259259],[0.3111111111111111],[1],[0],[0],[1.4979649999877438],['target'],DM,001,2024-10-10_19h58.50.672,visula search,2024.1.5,None,2024-10-10 20h03.00.274554 +0530,
197,0,197,0,396.63138289994095,,396.590682100039,10,396.63138289994095,396.63138289994095,0.028398099937476218,398.57037860003766,[0.3296296296296296],[-0.33055555555555555],[1],[0],[0],[1.9516694999765605],['target'],DM,001,2024-10-10_19h58.50.672,visula search,2024.1.5,None,2024-10-10 20h03.00.274554 +0530,
198,0,198,0,398.61146100005135,,398.5731333999429,10,398.61146100005135,398.61146100005135,0.026765399961732328,399.8032333999872,[0.21481481481481482],[-0.14722222222222223],[1],[0],[0],[1.2036172999069095],['target'],DM,001,2024-10-10_19h58.50.672,visula search,2024.1.5,None,2024-10-10 20h03.00.274554 +0530,
199,0,199,0,399.8427240999881,,399.8059022000525,10,399.8427240999881,399.8427240999881,0.0257339000236243,401.71964789996855,[0.1824074074074074],[0.0962962962962963],[1],[0],[0],[1.888277200050652],[],DM,001,2024-10-10_19h58.50.672,visula search,2024.1.5,None,2024-10-10 20h03.00.274554 +0530,
