trials.thisRepN,trials.thisTrialN,trials.thisN,trials.thisIndex,thisRow.t,notes,trial.started,num_distr,fixation.started,target.started,mouse.started,trial.stopped,mouse.x,mouse.y,mouse.leftButton,mouse.midButton,mouse.rightButton,mouse.time,mouse.clicked_name,participant,session,date,expName,psychopyVersion,frameRate,expStart,
0,0,0,0,0.034880699939094484,,0.005892499932087958,5,0.034880699939094484,0.034880699939094484,0.025376199977472425,2.035002499935217,[-0.14629629629629629],[-0.15],[1],[0],[0],[2.0086146999383345],['target'],KK,001,2024-10-10_19h32.31.406,visula search,2024.1.5,None,2024-10-10 19h32.46.142999 +0530,
1,0,1,0,2.065696300007403,,2.0402847999939695,5,2.065696300007403,2.065696300007403,0.018153200042434037,4.964961100020446,[0.023148148148148147],[0.49722222222222223],[1],[0],[0],[2.906941600027494],['target'],KK,001,2024-10-10_19h32.31.406,visula search,2024.1.5,None,2024-10-10 19h32.46.142999 +0530,
2,0,2,0,4.9913229999365285,,4.968168999999762,5,4.9913229999365285,4.9913229999365285,0.016369599965400994,6.780847499961965,[0.1287037037037037],[-0.21203703703703702],[1],[0],[0],[1.7966722999699414],['target'],KK,001,2024-10-10_19h32.31.406,visula search,2024.1.5,None,2024-10-10 19h32.46.142999 +0530,
3,0,3,0,6.808635800029151,,6.784210999961942,5,6.808635800029151,6.808635800029151,0.017292600008659065,8.130492400028743,[0.000925925925925926],[-0.07962962962962963],[1],[0],[0],[1.3293010999914259],['target'],KK,001,2024-10-10_19h32.31.406,visula search,2024.1.5,None,2024-10-10 19h32.46.142999 +0530,
4,0,4,0,8.172925799968652,,8.133171899942681,10,8.172925799968652,8.172925799968652,0.0259991999482736,9.679937699926086,[-0.2712962962962963],[0.004629629629629629],[1],[0],[0],[1.5209573999745771],['target'],KK,001,2024-10-10_19h32.31.406,visula search,2024.1.5,None,2024-10-10 19h32.46.142999 +0530,
5,0,5,0,9.704536300036125,,9.682793500018306,5,9.704536300036125,9.704536300036125,0.01409170008264482,11.329282899969257,[0.20185185185185187],[0.02962962962962963],[1],[0],[0],[1.632650600047782],['target'],KK,001,2024-10-10_19h32.31.406,visula search,2024.1.5,None,2024-10-10 19h32.46.142999 +0530,
6,0,6,0,11.354661999968812,,11.332170499954373,5,11.354661999968812,11.354661999968812,0.015272699994966388,13.04616020002868,[-0.3472222222222222],[0.29444444444444445],[1],[0],[0],[1.6989915000740439],['target'],KK,001,2024-10-10_19h32.31.406,visula search,2024.1.5,None,2024-10-10 19h32.46.142999 +0530,
7,0,7,0,13.070387199986726,,13.048876999993809,5,13.070387199986726,13.070387199986726,0.014101199922151864,14.661833000020124,[0.412962962962963],[-0.025925925925925925],[1],[0],[0],[1.5990788999479264],['target'],KK,001,2024-10-10_19h32.31.406,visula search,2024.1.5,None,2024-10-10 19h32.46.142999 +0530,
8,0,8,0,14.704111799946986,,14.665054099983536,10,14.704111799946986,14.704111799946986,0.027963100001215935,16.94470899994485,[-0.12407407407407407],[0.46944444444444444],[1],[0],[0],[2.2520448999712244],['target'],KK,001,2024-10-10_19h32.31.406,visula search,2024.1.5,None,2024-10-10 19h32.46.142999 +0530,
9,0,9,0,16.98575939994771,,16.947258800035343,10,16.98575939994771,16.98575939994771,0.02670610009226948,18.577388599980623,[-0.2175925925925926],[-0.39537037037037037],[1],[0],[0],[1.6036205000709742],['target'],KK,001,2024-10-10_19h32.31.406,visula search,2024.1.5,None,2024-10-10 19h32.46.142999 +0530,
10,0,10,0,18.619392800028436,,18.580180299934,10,18.619392800028436,18.619392800028436,0.027649899944663048,20.659838299965486,[0.2916666666666667],[0.3398148148148148],[1],[0],[0],[2.052288500010036],['target'],KK,001,2024-10-10_19h32.31.406,visula search,2024.1.5,None,2024-10-10 19h32.46.142999 +0530,
11,0,11,0,20.683439299929887,,20.662356599932536,5,20.683439299929887,20.683439299929887,0.013615200063213706,21.876524699968286,[-0.17962962962962964],[0.27685185185185185],[1],[0],[0],[1.200755099998787],['target'],KK,001,2024-10-10_19h32.31.406,visula search,2024.1.5,None,2024-10-10 19h32.46.142999 +0530,
12,0,12,0,21.917182700010017,,21.879287399933673,10,21.917182700010017,21.917182700010017,0.026734600076451898,23.858804899966344,[-0.2],[-0.3907407407407407],[1],[0],[0],[1.9530694000422955],['target'],KK,001,2024-10-10_19h32.31.406,visula search,2024.1.5,None,2024-10-10 19h32.46.142999 +0530,
13,0,13,0,23.903395800036378,,23.861380200018175,10,23.903395800036378,23.903395800036378,0.03049419994931668,25.208631800021976,[-0.38333333333333336],[-0.28703703703703703],[1],[0],[0],[1.3169554999331012],['target'],KK,001,2024-10-10_19h32.31.406,visula search,2024.1.5,None,2024-10-10 19h32.46.142999 +0530,
14,0,14,0,25.252240999951027,,25.21155429992359,10,25.252240999951027,25.252240999951027,0.028973900014534593,27.94095209997613,[0.05277777777777778],[0.3861111111111111],[1],[0],[0],[2.7010051999241114],['target'],KK,001,2024-10-10_19h32.31.406,visula search,2024.1.5,None,2024-10-10 19h32.46.142999 +0530,
15,0,15,0,27.964652099995874,,27.943532099947333,5,27.964652099995874,27.964652099995874,0.013620899990200996,30.306735199992545,[0.18888888888888888],[-0.45740740740740743],[1],[0],[0],[2.3497841999633238],['target'],KK,001,2024-10-10_19h32.31.406,visula search,2024.1.5,None,2024-10-10 19h32.46.142999 +0530,
16,0,16,0,30.33349729992915,,30.309657200006768,5,30.33349729992915,30.33349729992915,0.016122500062920153,32.0394039999228,[-0.28425925925925927],[0.47685185185185186],[1],[0],[0],[1.7139015999855474],['target'],KK,001,2024-10-10_19h32.31.406,visula search,2024.1.5,None,2024-10-10 19h32.46.142999 +0530,
17,0,17,0,32.080122699961066,,32.042278999928385,10,32.080122699961066,32.080122699961066,0.027134399977512658,33.922221799963154,[-0.2537037037037037],[-0.15925925925925927],[1],[0],[0],[1.853111100033857],['target'],KK,001,2024-10-10_19h32.31.406,visula search,2024.1.5,None,2024-10-10 19h32.46.142999 +0530,
18,0,18,0,33.945752699975856,,33.92483599996194,5,33.945752699975856,33.945752699975856,0.013943800004199147,35.072191199986264,[0.11574074074074074],[0.16944444444444445],[1],[0],[0],[1.133629700052552],['target'],KK,001,2024-10-10_19h32.31.406,visula search,2024.1.5,None,2024-10-10 19h32.46.142999 +0530,
19,0,19,0,35.11297989997547,,35.074937299941666,10,35.11297989997547,35.11297989997547,0.02650920010637492,37.72118059999775,[0.10185185185185185],[-0.43333333333333335],[1],[0],[0],[2.619995699962601],['target'],KK,001,2024-10-10_19h32.31.406,visula search,2024.1.5,None,2024-10-10 19h32.46.142999 +0530,
20,0,20,0,37.74617349996697,,37.72384029999375,5,37.74617349996697,37.74617349996697,0.014458699966780841,38.886968299979344,[0.06944444444444445],[0.023148148148148147],[1],[0],[0],[1.1488879999378696],['target'],KK,001,2024-10-10_19h32.31.406,visula search,2024.1.5,None,2024-10-10 19h32.46.142999 +0530,
21,0,21,0,38.92850219993852,,38.890027899993584,10,38.92850219993852,38.92850219993852,0.027385600027628243,40.686679400037974,[0.42314814814814816],[-0.05740740740740741],[1],[0],[0],[1.7695821999805048],['target'],KK,001,2024-10-10_19h32.31.406,visula search,2024.1.5,None,2024-10-10 19h32.46.142999 +0530,
22,0,22,0,40.72990849998314,,40.6894931999268,10,40.72990849998314,40.72990849998314,0.028315800009295344,42.436465699924156,[0.23333333333333334],[0.09722222222222222],[1],[0],[0],[1.7188612000318244],['target'],KK,001,2024-10-10_19h32.31.406,visula search,2024.1.5,None,2024-10-10 19h32.46.142999 +0530,
23,0,23,0,42.47636969992891,,42.4391543000238,10,42.47636969992891,42.47636969992891,0.026043099933303893,43.969351100036874,[0.325],[0.3490740740740741],[1],[0],[0],[1.5042712999274954],['target'],KK,001,2024-10-10_19h32.31.406,visula search,2024.1.5,None,2024-10-10 19h32.46.142999 +0530,
24,0,24,0,44.01054639997892,,43.97220089996699,10,44.01054639997892,44.01054639997892,0.02698020008392632,45.26884599996265,[0.009259259259259259],[0.49166666666666664],[1],[0],[0],[1.2698763000080362],['target'],KK,001,2024-10-10_19h32.31.406,visula search,2024.1.5,None,2024-10-10 19h32.46.142999 +0530,
25,0,25,0,45.30862539994996,,45.27138389996253,10,45.30862539994996,45.30862539994996,0.025931800017133355,46.6856985000195,[0.32592592592592595],[0.1388888888888889],[1],[0],[0],[1.3886060999939218],['target'],KK,001,2024-10-10_19h32.31.406,visula search,2024.1.5,None,2024-10-10 19h32.46.142999 +0530,
26,0,26,0,46.7102229000302,,46.68857949995436,5,46.7102229000302,46.7102229000302,0.014526100014336407,49.15082740003709,[0.33611111111111114],[-0.3638888888888889],[1],[0],[0],[2.4480464999796823],['target'],KK,001,2024-10-10_19h32.31.406,visula search,2024.1.5,None,2024-10-10 19h32.46.142999 +0530,
27,0,27,0,49.19289740000386,,49.15377490001265,10,49.19289740000386,49.19289740000386,0.027709999936632812,50.21747319994029,[-0.16574074074074074],[-0.11666666666666667],[1],[0],[0],[1.0362672000192106],[],KK,001,2024-10-10_19h32.31.406,visula search,2024.1.5,None,2024-10-10 19h32.46.142999 +0530,
28,0,28,0,50.25857269996777,,50.22007649997249,10,50.25857269996777,50.25857269996777,0.026880300021730363,51.36699479992967,[-0.044444444444444446],[0.1037037037037037],[1],[0],[0],[1.1202626000158489],['target'],KK,001,2024-10-10_19h32.31.406,visula search,2024.1.5,None,2024-10-10 19h32.46.142999 +0530,
29,0,29,0,51.39186999993399,,51.36986730003264,5,51.39186999993399,51.39186999993399,0.014768399996683002,52.86669009993784,[-0.3],[0.17962962962962964],[1],[0],[0],[1.4821764999069273],['target'],KK,001,2024-10-10_19h32.31.406,visula search,2024.1.5,None,2024-10-10 19h32.46.142999 +0530,
30,0,30,0,52.91239569999743,,52.87093430000823,10,52.91239569999743,52.91239569999743,0.030736099928617477,55.61565689998679,[0.3648148148148148],[-0.2675925925925926],[1],[0],[0],[2.7145619000075385],['target'],KK,001,2024-10-10_19h32.31.406,visula search,2024.1.5,None,2024-10-10 19h32.46.142999 +0530,
31,0,31,0,55.65927209996153,,55.61849100003019,10,55.65927209996153,55.65927209996153,0.029112700023688376,57.11484399996698,[-0.15092592592592594],[-0.34074074074074073],[1],[0],[0],[1.4672959999879822],[],KK,001,2024-10-10_19h32.31.406,visula search,2024.1.5,None,2024-10-10 19h32.46.142999 +0530,
32,0,32,0,57.15831820003223,,57.11788879998494,10,57.15831820003223,57.15831820003223,0.029010600061155856,58.88088259997312,[0.3398148148148148],[0.45],[1],[0],[0],[1.734295100090094],['target'],KK,001,2024-10-10_19h32.31.406,visula search,2024.1.5,None,2024-10-10 19h32.46.142999 +0530,
33,0,33,0,58.9072390999645,,58.8836918999441,5,58.9072390999645,58.9072390999645,0.016019399976357818,60.71456859994214,[-0.31203703703703706],[0.4305555555555556],[1],[0],[0],[1.8151540999533609],['target'],KK,001,2024-10-10_19h32.31.406,visula search,2024.1.5,None,2024-10-10 19h32.46.142999 +0530,
34,0,34,0,60.74252590001561,,60.71784910000861,5,60.74252590001561,60.74252590001561,0.015941299963742495,62.01332739996724,[-0.2777777777777778],[-0.08425925925925926],[1],[0],[0],[1.2798078999621794],['target'],KK,001,2024-10-10_19h32.31.406,visula search,2024.1.5,None,2024-10-10 19h32.46.142999 +0530,
35,0,35,0,62.038986400002614,,62.01624080003239,5,62.038986400002614,62.038986400002614,0.01508869999088347,64.14578729995992,[0.30833333333333335],[-0.1527777777777778],[1],[0],[0],[2.1147121000103652],['target'],KK,001,2024-10-10_19h32.31.406,visula search,2024.1.5,None,2024-10-10 19h32.46.142999 +0530,
36,0,36,0,64.18839180003852,,64.14891170000192,10,64.18839180003852,64.18839180003852,0.028652400011196733,65.87850220000837,[0.4546296296296296],[0.17962962962962964],[1],[0],[0],[1.7013179999776185],['target'],KK,001,2024-10-10_19h32.31.406,visula search,2024.1.5,None,2024-10-10 19h32.46.142999 +0530,
37,0,37,0,65.91977429995313,,65.88136020000093,10,65.91977429995313,65.91977429995313,0.026561500038951635,67.29493490001187,[0.4],[0.2490740740740741],[1],[0],[0],[1.3873154999455437],['target'],KK,001,2024-10-10_19h32.31.406,visula search,2024.1.5,None,2024-10-10 19h32.46.142999 +0530,
38,0,38,0,67.3359154999489,,67.2975953000132,10,67.3359154999489,67.3359154999489,0.026716499938629568,69.66069139994215,[-0.4787037037037037],[-0.29259259259259257],[1],[0],[0],[2.3366625999333337],['target'],KK,001,2024-10-10_19h32.31.406,visula search,2024.1.5,None,2024-10-10 19h32.46.142999 +0530,
39,0,39,0,69.68566810002085,,69.66350020002574,5,69.68566810002085,69.68566810002085,0.014561800053343177,71.42720069992356,[-0.3037037037037037],[0.046296296296296294],[1],[0],[0],[1.74936360004358],['target'],KK,001,2024-10-10_19h32.31.406,visula search,2024.1.5,None,2024-10-10 19h32.46.142999 +0530,
40,0,40,0,71.45144059997983,,71.42984450003132,5,71.45144059997983,71.45144059997983,0.014523599995300174,72.859645599965,[0.09259259259259259],[0.1425925925925926],[1],[0],[0],[1.415442300029099],['target'],KK,001,2024-10-10_19h32.31.406,visula search,2024.1.5,None,2024-10-10 19h32.46.142999 +0530,
41,0,41,0,72.90054669999518,,72.86241689999588,10,72.90054669999518,72.90054669999518,0.027020600042305887,75.57584369997494,[0.3351851851851852],[-0.3398148148148148],[1],[0],[0],[2.686650500050746],['target'],KK,001,2024-10-10_19h32.31.406,visula search,2024.1.5,None,2024-10-10 19h32.46.142999 +0530,
42,0,42,0,75.59926779998932,,75.57845489995088,5,75.59926779998932,75.59926779998932,0.01366779999807477,76.67537900002208,[0.412962962962963],[-0.037037037037037035],[1],[0],[0],[1.0835088000167161],['target'],KK,001,2024-10-10_19h32.31.406,visula search,2024.1.5,None,2024-10-10 19h32.46.142999 +0530,
43,0,43,0,76.70038599998225,,76.6785442000255,5,76.70038599998225,76.70038599998225,0.014757600030861795,78.14140960003715,[-0.45],[-0.4777777777777778],[1],[0],[0],[1.448392799939029],['target'],KK,001,2024-10-10_19h32.31.406,visula search,2024.1.5,None,2024-10-10 19h32.46.142999 +0530,
44,0,44,0,78.17135520000011,,78.14569599996321,5,78.17135520000011,78.17135520000011,0.018612900050356984,79.957605100004,[-0.13703703703703704],[0.22592592592592592],[1],[0],[0],[1.7941151999402791],['target'],KK,001,2024-10-10_19h32.31.406,visula search,2024.1.5,None,2024-10-10 19h32.46.142999 +0530,
45,0,45,0,79.98432809999213,,79.96106699993834,5,79.98432809999213,79.98432809999213,0.015967399929650128,82.48976999998558,[0.18425925925925926],[-0.2972222222222222],[1],[0],[0],[2.5131896999664605],['target'],KK,001,2024-10-10_19h32.31.406,visula search,2024.1.5,None,2024-10-10 19h32.46.142999 +0530,
46,0,46,0,82.53141970001161,,82.49275039997883,10,82.53141970001161,82.53141970001161,0.027656399994157255,84.60577929997817,[-0.3537037037037037],[0.3861111111111111],[1],[0],[0],[2.085709600010887],['target'],KK,001,2024-10-10_19h32.31.406,visula search,2024.1.5,None,2024-10-10 19h32.46.142999 +0530,
47,0,47,0,84.64628270000685,,84.6083212000085,10,84.64628270000685,84.64628270000685,0.026611399953253567,86.55568200000562,[0.028703703703703703],[0.14351851851851852],[1],[0],[0],[1.920940599986352],['target'],KK,001,2024-10-10_19h32.31.406,visula search,2024.1.5,None,2024-10-10 19h32.46.142999 +0530,
48,0,48,0,86.57905599998776,,86.55827329994645,5,86.57905599998776,86.57905599998776,0.0134723000228405,89.52119350002613,[-0.07777777777777778],[-0.013888888888888888],[1],[0],[0],[2.9494346000719815],[],KK,001,2024-10-10_19h32.31.406,visula search,2024.1.5,None,2024-10-10 19h32.46.142999 +0530,
49,0,49,0,89.54887950001284,,89.52461429999676,5,89.54887950001284,89.54887950001284,0.016450700000859797,91.28692039998714,[0.45092592592592595],[0.2564814814814815],[1],[0],[0],[1.7462421999080107],['target'],KK,001,2024-10-10_19h32.31.406,visula search,2024.1.5,None,2024-10-10 19h32.46.142999 +0530,
50,0,50,0,91.32692799996585,,91.2896220999537,10,91.32692799996585,91.32692799996585,0.026187999988906085,92.80309719999786,[-0.06111111111111111],[-0.005555555555555556],[1],[0],[0],[1.4875981999794021],['target'],KK,001,2024-10-10_19h32.31.406,visula search,2024.1.5,None,2024-10-10 19h32.46.142999 +0530,
51,0,51,0,92.84479689993896,,92.80564339994453,10,92.84479689993896,92.84479689993896,0.027375899953767657,94.38607419992331,[-0.19444444444444445],[0.3731481481481482],[1],[0],[0],[1.5532724000513554],['target'],KK,001,2024-10-10_19h32.31.406,visula search,2024.1.5,None,2024-10-10 19h32.46.142999 +0530,
52,0,52,0,94.42641299997922,,94.38880700001027,10,94.42641299997922,94.42641299997922,0.02646439999807626,96.71839739999268,[-0.46574074074074073],[-0.41759259259259257],[1],[0],[0],[2.303406300023198],['target'],KK,001,2024-10-10_19h32.31.406,visula search,2024.1.5,None,2024-10-10 19h32.46.142999 +0530,
53,0,53,0,96.7450093999505,,96.72116710001137,5,96.7450093999505,96.7450093999505,0.0157611999893561,97.96815480000805,[-0.3972222222222222],[-0.025925925925925925],[1],[0],[0],[1.2313959999009967],['target'],KK,001,2024-10-10_19h32.31.406,visula search,2024.1.5,None,2024-10-10 19h32.46.142999 +0530,
54,0,54,0,98.00926920003258,,97.97119710000698,10,98.00926920003258,98.00926920003258,0.027044099988415837,99.25102880003396,[-0.18518518518518517],[-0.13055555555555556],[1],[0],[0],[1.2531117000617087],['target'],KK,001,2024-10-10_19h32.31.406,visula search,2024.1.5,None,2024-10-10 19h32.46.142999 +0530,
55,0,55,0,99.2919878999237,,99.2536126000341,10,99.2919878999237,99.2919878999237,0.026177099905908108,100.2677970000077,[-0.17962962962962964],[-0.19722222222222222],[1],[0],[0],[0.9880293000023812],['target'],KK,001,2024-10-10_19h32.31.406,visula search,2024.1.5,None,2024-10-10 19h32.46.142999 +0530,
56,0,56,0,100.31041109992657,,100.27040759997908,10,100.31041109992657,100.31041109992657,0.027717499993741512,102.58362019993365,[0.36203703703703705],[0.48333333333333334],[1],[0],[0],[2.28566289995797],['target'],KK,001,2024-10-10_19h32.31.406,visula search,2024.1.5,None,2024-10-10 19h32.46.142999 +0530,
57,0,57,0,102.60723269998562,,102.5861035999842,5,102.60723269998562,102.60723269998562,0.013671400025486946,104.48299479996786,[0.08796296296296297],[-0.14907407407407408],[1],[0],[0],[1.883354000048712],['target'],KK,001,2024-10-10_19h32.31.406,visula search,2024.1.5,None,2024-10-10 19h32.46.142999 +0530,
58,0,58,0,104.50904909998644,,104.48577589995693,5,104.50904909998644,104.50904909998644,0.015672100009396672,106.11537909996696,[-0.12777777777777777],[0.05925925925925926],[1],[0],[0],[1.614148800028488],['target'],KK,001,2024-10-10_19h32.31.406,visula search,2024.1.5,None,2024-10-10 19h32.46.142999 +0530,
59,0,59,0,106.13958800002001,,106.1182281000074,5,106.13958800002001,106.13958800002001,0.01425000000745058,107.61488579993602,[0.33796296296296297],[0.2759259259259259],[1],[0],[0],[1.4826701000565663],['target'],KK,001,2024-10-10_19h32.31.406,visula search,2024.1.5,None,2024-10-10 19h32.46.142999 +0530,
60,0,60,0,107.6392059000209,,107.61748689995147,5,107.6392059000209,107.6392059000209,0.014146900037303567,108.91451209993102,[0.06481481481481481],[0.13055555555555556],[1],[0],[0],[1.2830952999647707],['target'],KK,001,2024-10-10_19h32.31.406,visula search,2024.1.5,None,2024-10-10 19h32.46.142999 +0530,
61,0,61,0,108.94075219996739,,108.91763509996235,5,108.94075219996739,108.94075219996739,0.01503090001642704,111.08027839998249,[-0.32592592592592595],[0.15462962962962962],[1],[0],[0],[2.1478693999815732],['target'],KK,001,2024-10-10_19h32.31.406,visula search,2024.1.5,None,2024-10-10 19h32.46.142999 +0530,
62,0,62,0,111.12176090001594,,111.08340370003134,10,111.12176090001594,111.12176090001594,0.02687459997832775,112.77987039997242,[-0.014814814814814815],[0.016666666666666666],[1],[0],[0],[1.6699065000284463],[],KK,001,2024-10-10_19h32.31.406,visula search,2024.1.5,None,2024-10-10 19h32.46.142999 +0530,
63,0,63,0,112.82017399999313,,112.78259660000913,10,112.82017399999313,112.82017399999313,0.02627800009213388,114.56300229998305,[-0.29259259259259257],[0.4601851851851852],[1],[0],[0],[1.7543759000254795],['target'],KK,001,2024-10-10_19h32.31.406,visula search,2024.1.5,None,2024-10-10 19h32.46.142999 +0530,
64,0,64,0,114.60310770000797,,114.56561559997499,10,114.60310770000797,114.60310770000797,0.025774399982765317,116.04539220000152,[-0.34444444444444444],[0.44166666666666665],[1],[0],[0],[1.454194899997674],['target'],KK,001,2024-10-10_19h32.31.406,visula search,2024.1.5,None,2024-10-10 19h32.46.142999 +0530,
65,0,65,0,116.08601379999891,,116.04811929992866,10,116.08601379999891,116.08601379999891,0.026283699902705848,117.89584150002338,[-0.2898148148148148],[-0.22037037037037038],[1],[0],[0],[1.8216165999183431],['target'],KK,001,2024-10-10_19h32.31.406,visula search,2024.1.5,None,2024-10-10 19h32.46.142999 +0530,
66,0,66,0,117.92242990003433,,117.89863660000265,5,117.92242990003433,117.92242990003433,0.015214000013656914,120.3778315000236,[0.38796296296296295],[-0.11666666666666667],[1],[0],[0],[2.4641341000096872],['target'],KK,001,2024-10-10_19h32.31.406,visula search,2024.1.5,None,2024-10-10 19h32.46.142999 +0530,
67,0,67,0,120.4040088999318,,120.38093500002287,5,120.4040088999318,120.4040088999318,0.015710000065155327,121.86045969999395,[0.08333333333333333],[0.38425925925925924],[1],[0],[0],[1.4641772999893874],['target'],KK,001,2024-10-10_19h32.31.406,visula search,2024.1.5,None,2024-10-10 19h32.46.142999 +0530,
68,0,68,0,121.90104799997061,,121.86334209993947,10,121.90104799997061,121.90104799997061,0.026361400028690696,123.06052329996601,[-0.07777777777777778],[0.18888888888888888],[1],[0],[0],[1.1710895999567583],['target'],KK,001,2024-10-10_19h32.31.406,visula search,2024.1.5,None,2024-10-10 19h32.46.142999 +0530,
69,0,69,0,123.1001482999418,,123.06301549996715,10,123.1001482999418,123.1001482999418,0.0256952999625355,124.92560600000434,[-0.44074074074074077],[-0.40370370370370373],[1],[0],[0],[1.8370713000185788],['target'],KK,001,2024-10-10_19h32.31.406,visula search,2024.1.5,None,2024-10-10 19h32.46.142999 +0530,
70,0,70,0,124.95107439998537,,124.9284231000347,5,124.95107439998537,124.95107439998537,0.014962499961256981,127.37548469996545,[0.39537037037037037],[0.3287037037037037],[1],[0],[0],[2.4322616999270394],['target'],KK,001,2024-10-10_19h32.31.406,visula search,2024.1.5,None,2024-10-10 19h32.46.142999 +0530,
71,0,71,0,127.41762810002547,,127.37847809994128,10,127.41762810002547,127.41762810002547,0.027189500047825277,129.3747813999653,[0.15185185185185185],[0.12407407407407407],[1],[0],[0],[1.9694126999238506],['target'],KK,001,2024-10-10_19h32.31.406,visula search,2024.1.5,None,2024-10-10 19h32.46.142999 +0530,
72,0,72,0,129.41617069998756,,129.37750699999742,10,129.41617069998756,129.41617069998756,0.026784799993038177,132.0408213000046,[-0.2462962962962963],[0.4185185185185185],[1],[0],[0],[2.6367232999764383],['target'],KK,001,2024-10-10_19h32.31.406,visula search,2024.1.5,None,2024-10-10 19h32.46.142999 +0530,
73,0,73,0,132.06483769998886,,132.0435417999979,5,132.06483769998886,132.06483769998886,0.013733400031924248,133.49003430001903,[-0.21666666666666667],[0.06944444444444445],[1],[0],[0],[1.4329479000298306],['target'],KK,001,2024-10-10_19h32.31.406,visula search,2024.1.5,None,2024-10-10 19h32.46.142999 +0530,
74,0,74,0,133.53339669993147,,133.49314489995595,10,133.53339669993147,133.53339669993147,0.028486300026997924,135.05612169997767,[-0.10925925925925926],[0.45092592592592595],[1],[0],[0],[1.534736100002192],['target'],KK,001,2024-10-10_19h32.31.406,visula search,2024.1.5,None,2024-10-10 19h32.46.142999 +0530,
75,0,75,0,135.08045619993936,,135.05865180003457,5,135.08045619993936,135.08045619993936,0.014244799967855215,136.15536879992578,[-0.000925925925925926],[0.43796296296296294],[1],[0],[0],[1.0826452999608591],['target'],KK,001,2024-10-10_19h32.31.406,visula search,2024.1.5,None,2024-10-10 19h32.46.142999 +0530,
76,0,76,0,136.18025560001843,,136.15828660002444,5,136.18025560001843,136.18025560001843,0.014894499909132719,137.37213799997699,[-0.16111111111111112],[0.028703703703703703],[1],[0],[0],[1.199164199992083],['target'],KK,001,2024-10-10_19h32.31.406,visula search,2024.1.5,None,2024-10-10 19h32.46.142999 +0530,
77,0,77,0,137.41572149994317,,137.37522529996932,10,137.41572149994317,137.41572149994317,0.029109499999321997,138.47137099993415,[-0.35185185185185186],[0.018518518518518517],[1],[0],[0],[1.0673259000759572],['target'],KK,001,2024-10-10_19h32.31.406,visula search,2024.1.5,None,2024-10-10 19h32.46.142999 +0530,
78,0,78,0,138.51363169995602,,138.47420840000268,10,138.51363169995602,138.51363169995602,0.027591499965637922,141.37089979997836,[-0.48148148148148145],[-0.24351851851851852],[1],[0],[0],[2.869425200042315],['target'],KK,001,2024-10-10_19h32.31.406,visula search,2024.1.5,None,2024-10-10 19h32.46.142999 +0530,
79,0,79,0,141.4120104999747,,141.3736593000358,10,141.4120104999747,141.4120104999747,0.026992700062692165,142.98748080001678,[0.1287037037037037],[0.2611111111111111],[1],[0],[0],[1.5870911000529304],['target'],KK,001,2024-10-10_19h32.31.406,visula search,2024.1.5,None,2024-10-10 19h32.46.142999 +0530,
80,0,80,0,143.0134958999697,,142.99018299998716,5,143.0134958999697,143.0134958999697,0.015491300029680133,144.6197087999899,[0.4537037037037037],[-0.04814814814814815],[1],[0],[0],[1.6142615999560803],['target'],KK,001,2024-10-10_19h32.31.406,visula search,2024.1.5,None,2024-10-10 19h32.46.142999 +0530,
81,0,81,0,144.64728599996306,,144.62298420001753,5,144.64728599996306,144.64728599996306,0.0166371000232175,146.61932269996032,[-0.31296296296296294],[0.13148148148148148],[1],[0],[0],[1.9801614999305457],['target'],KK,001,2024-10-10_19h32.31.406,visula search,2024.1.5,None,2024-10-10 19h32.46.142999 +0530,
82,0,82,0,146.6463870999869,,146.62279890000354,5,146.6463870999869,146.6463870999869,0.016283900011330843,148.3849563000258,[0.3138888888888889],[0.39537037037037037],[1],[0],[0],[1.746393600013107],['target'],KK,001,2024-10-10_19h32.31.406,visula search,2024.1.5,None,2024-10-10 19h32.46.142999 +0530,
83,0,83,0,148.47681719996035,,148.39147389994469,10,148.47681719996035,148.47681719996035,0.05874699994456023,152.60447319992818,[-0.002777777777777778],[0.16018518518518518],[1],[0],[0],[4.155439199996181],['target'],KK,001,2024-10-10_19h32.31.406,visula search,2024.1.5,None,2024-10-10 19h32.46.142999 +0530,
84,0,84,0,152.6328657999402,,152.60713989997748,5,152.6328657999402,152.6328657999402,0.016987300012260675,153.7877074999269,[-0.2222222222222222],[-0.13333333333333333],[1],[0],[0],[1.163813899969682],['target'],KK,001,2024-10-10_19h32.31.406,visula search,2024.1.5,None,2024-10-10 19h32.46.142999 +0530,
85,0,85,0,153.83718209993094,,153.7906287999358,10,153.83718209993094,153.83718209993094,0.033361599897034466,156.19970040000044,[-0.046296296296296294],[0.05092592592592592],[1],[0],[0],[2.37592969997786],['target'],KK,001,2024-10-10_19h32.31.406,visula search,2024.1.5,None,2024-10-10 19h32.46.142999 +0530,
86,0,86,0,156.24413909995928,,156.20219119999092,10,156.24413909995928,156.24413909995928,0.029350899974815547,158.0162977,[-0.12407407407407407],[-0.35],[1],[0],[0],[1.7849893999518827],['target'],KK,001,2024-10-10_19h32.31.406,visula search,2024.1.5,None,2024-10-10 19h32.46.142999 +0530,
87,0,87,0,158.04145719995722,,158.01905070000794,5,158.04145719995722,158.04145719995722,0.014197599957697093,159.74772719992325,[-0.23981481481481481],[0.5],[1],[0],[0],[1.7146994998911396],['target'],KK,001,2024-10-10_19h32.31.406,visula search,2024.1.5,None,2024-10-10 19h32.46.142999 +0530,
88,0,88,0,159.78824809996877,,159.7507611999754,10,159.78824809996877,159.78824809996877,0.02651310001965612,161.53056869993452,[0.007407407407407408],[-0.30092592592592593],[1],[0],[0],[1.7536351000890136],['target'],KK,001,2024-10-10_19h32.31.406,visula search,2024.1.5,None,2024-10-10 19h32.46.142999 +0530,
89,0,89,0,161.55514559999574,,161.53337329998612,5,161.55514559999574,161.55514559999574,0.014571400010026991,163.1136480999412,[-0.48055555555555557],[0.25462962962962965],[1],[0],[0],[1.565899100038223],['target'],KK,001,2024-10-10_19h32.31.406,visula search,2024.1.5,None,2024-10-10 19h32.46.142999 +0530,
90,0,90,0,163.13767620001454,,163.11655219993554,5,163.13767620001454,163.13767620001454,0.014175900025293231,164.7961391999852,[-0.009259259259259259],[-0.10925925925925926],[1],[0],[0],[1.6656873000320047],['target'],KK,001,2024-10-10_19h32.31.406,visula search,2024.1.5,None,2024-10-10 19h32.46.142999 +0530,
91,0,91,0,164.82843090000097,,164.79974569997285,5,164.82843090000097,164.82843090000097,0.019325200002640486,167.97886129992548,[0.18888888888888888],[-0.2759259259259259],[1],[0],[0],[3.160195200005546],['target'],KK,001,2024-10-10_19h32.31.406,visula search,2024.1.5,None,2024-10-10 19h32.46.142999 +0530,
92,0,92,0,168.02355639997404,,167.98241189995315,10,168.02355639997404,168.02355639997404,0.029956699931062758,169.72878300002776,[0.16203703703703703],[0.4666666666666667],[1],[0],[0],[1.716741899959743],['target'],KK,001,2024-10-10_19h32.31.406,visula search,2024.1.5,None,2024-10-10 19h32.46.142999 +0530,
93,0,93,0,169.76881809998304,,169.73133480001707,10,169.76881809998304,169.76881809998304,0.026401799987070262,171.4609246000182,[-0.5018518518518519],[0.1527777777777778],[1],[0],[0],[1.7034086000639945],['target'],KK,001,2024-10-10_19h32.31.406,visula search,2024.1.5,None,2024-10-10 19h32.46.142999 +0530,
94,0,94,0,171.5041474000318,,171.4640191999497,10,171.5041474000318,171.5041474000318,0.028585599968209863,174.65976780001074,[-0.13148148148148148],[-0.30092592592592593],[1],[0],[0],[3.167422499973327],['target'],KK,001,2024-10-10_19h32.31.406,visula search,2024.1.5,None,2024-10-10 19h32.46.142999 +0530,
95,0,95,0,174.68438170000445,,174.66240869998,5,174.68438170000445,174.68438170000445,0.014477199991233647,176.01045449997764,[-0.1398148148148148],[0.4351851851851852],[1],[0],[0],[1.3337629999732599],['target'],KK,001,2024-10-10_19h32.31.406,visula search,2024.1.5,None,2024-10-10 19h32.46.142999 +0530,
96,0,96,0,176.0346629000269,,176.01309349993244,5,176.0346629000269,176.0346629000269,0.013717799913138151,177.49234769993927,[-0.05185185185185185],[0.2796296296296296],[1],[0],[0],[1.465797199984081],['target'],KK,001,2024-10-10_19h32.31.406,visula search,2024.1.5,None,2024-10-10 19h32.46.142999 +0530,
97,0,97,0,177.52021979994606,,177.49530059995595,5,177.52021979994606,177.52021979994606,0.01686670002527535,179.77569869998842,[0.2722222222222222],[0.2657407407407407],[1],[0],[0],[2.2635867000790313],['target'],KK,001,2024-10-10_19h32.31.406,visula search,2024.1.5,None,2024-10-10 19h32.46.142999 +0530,
98,0,98,0,179.8199204999255,,179.77860229997896,10,179.8199204999255,179.8199204999255,0.029574599931947887,181.8750687999418,[0.10462962962962963],[-0.09259259259259259],[1],[0],[0],[2.0672140999231488],['target'],KK,001,2024-10-10_19h32.31.406,visula search,2024.1.5,None,2024-10-10 19h32.46.142999 +0530,
99,0,99,0,181.9160750999581,,181.87774539995007,10,181.9160750999581,181.9160750999581,0.026906799990683794,184.49020250001922,[-0.11666666666666667],[0.4],[1],[0],[0],[2.5858178000198677],['target'],KK,001,2024-10-10_19h32.31.406,visula search,2024.1.5,None,2024-10-10 19h32.46.142999 +0530,
100,0,100,0,184.51397790003102,,184.49282819998916,5,184.51397790003102,184.51397790003102,0.013690600055269897,186.97271260002162,[0.4361111111111111],[-0.03148148148148148],[1],[0],[0],[2.4663683000253513],['target'],KK,001,2024-10-10_19h32.31.406,visula search,2024.1.5,None,2024-10-10 19h32.46.142999 +0530,
101,0,101,0,187.00254979997408,,186.97711300000083,5,187.00254979997408,187.00254979997408,0.01781360001768917,188.92193860001862,[-0.24351851851851852],[-0.39351851851851855],[1],[0],[0],[1.9275339000159875],['target'],KK,001,2024-10-10_19h32.31.406,visula search,2024.1.5,None,2024-10-10 19h32.46.142999 +0530,
102,0,102,0,188.96496130002197,,188.9250260000117,10,188.96496130002197,188.96496130002197,0.027967800037004054,190.5048898999812,[-0.287962962962963],[0.023148148148148147],[1],[0],[0],[1.5523080000421032],['target'],KK,001,2024-10-10_19h32.31.406,visula search,2024.1.5,None,2024-10-10 19h32.46.142999 +0530,
103,0,103,0,190.52890629996546,,190.5076861999696,5,190.52890629996546,190.52890629996546,0.013783499947749078,192.2047404999612,[-0.29907407407407405],[-0.4444444444444444],[1],[0],[0],[1.683473499957472],['target'],KK,001,2024-10-10_19h32.31.406,visula search,2024.1.5,None,2024-10-10 19h32.46.142999 +0530,
104,0,104,0,192.24973729997873,,192.20777029998135,10,192.24973729997873,192.24973729997873,0.02969440002925694,195.4198753000237,[0.15925925925925927],[-0.41759259259259257],[1],[0],[0],[3.182695799972862],['target'],KK,001,2024-10-10_19h32.31.406,visula search,2024.1.5,None,2024-10-10 19h32.46.142999 +0530,
105,0,105,0,195.46440149995033,,195.4227622000035,10,195.46440149995033,195.46440149995033,0.029873999999836087,197.36924219992943,[-0.20555555555555555],[0.011111111111111112],[1],[0],[0],[1.9168459000065923],['target'],KK,001,2024-10-10_19h32.31.406,visula search,2024.1.5,None,2024-10-10 19h32.46.142999 +0530,
106,0,106,0,197.394423599937,,197.37219239992555,5,197.394423599937,197.394423599937,0.01497449993621558,202.08461939997505,[-0.1],[0.4925925925925926],[1],[0],[0],[4.697670899913646],['target'],KK,001,2024-10-10_19h32.31.406,visula search,2024.1.5,None,2024-10-10 19h32.46.142999 +0530,
107,0,107,0,202.1258256000001,,202.08750010002404,10,202.1258256000001,202.1258256000001,0.027068600058555603,205.4006284000352,[0.24722222222222223],[-0.34629629629629627],[1],[0],[0],[3.286298600025475],['target'],KK,001,2024-10-10_19h32.31.406,visula search,2024.1.5,None,2024-10-10 19h32.46.142999 +0530,
108,0,108,0,205.44140050001442,,205.40330739994533,10,205.44140050001442,205.44140050001442,0.026700400048866868,207.56601950002369,[0.36203703703703705],[0.2601851851851852],[1],[0],[0],[2.1362238998990506],['target'],KK,001,2024-10-10_19h32.31.406,visula search,2024.1.5,None,2024-10-10 19h32.46.142999 +0530,
109,0,109,0,207.6074691999238,,207.56873719999567,10,207.6074691999238,207.6074691999238,0.02714000002015382,209.46614060003776,[-0.4388888888888889],[0.08148148148148149],[1],[0],[0],[1.870511299930513],['target'],KK,001,2024-10-10_19h32.31.406,visula search,2024.1.5,None,2024-10-10 19h32.46.142999 +0530,
110,0,110,0,209.50663860002533,,209.46875899995212,10,209.50663860002533,209.50663860002533,0.026273899944499135,215.44722870003898,[0.31666666666666665],[-0.3888888888888889],[1],[0],[0],[5.952432799967937],['target'],KK,001,2024-10-10_19h32.31.406,visula search,2024.1.5,None,2024-10-10 19h32.46.142999 +0530,
111,0,111,0,215.4878064999357,,215.44976350001525,10,215.4878064999357,215.4878064999357,0.026801600004546344,217.0798974999925,[-0.4759259259259259],[0.21481481481481482],[1],[0],[0],[1.603428400005214],['target'],KK,001,2024-10-10_19h32.31.406,visula search,2024.1.5,None,2024-10-10 19h32.46.142999 +0530,
112,0,112,0,217.10297679994255,,217.08237960003316,5,217.10297679994255,217.10297679994255,0.01340109994634986,219.07915479992516,[0.2324074074074074],[-0.25833333333333336],[1],[0],[0],[1.9835797999985516],['target'],KK,001,2024-10-10_19h32.31.406,visula search,2024.1.5,None,2024-10-10 19h32.46.142999 +0530,
113,0,113,0,219.1033129999414,,219.0821345000295,5,219.1033129999414,219.1033129999414,0.014030099962837994,222.02817279996816,[0.20185185185185187],[-0.21296296296296297],[1],[0],[0],[2.9321768999798223],['target'],KK,001,2024-10-10_19h32.31.406,visula search,2024.1.5,None,2024-10-10 19h32.46.142999 +0530,
114,0,114,0,222.05614509992301,,222.0317090000026,5,222.05614509992301,222.05614509992301,0.017080700024962425,223.6779079999542,[-0.4601851851851852],[-0.1962962962962963],[1],[0],[0],[1.6295632000546902],['target'],KK,001,2024-10-10_19h32.31.406,visula search,2024.1.5,None,2024-10-10 19h32.46.142999 +0530,
115,0,115,0,223.7026812999975,,223.68049359996803,5,223.7026812999975,223.7026812999975,0.014871799969114363,225.81021769996732,[0.30092592592592593],[0.4083333333333333],[1],[0],[0],[2.115045199985616],['target'],KK,001,2024-10-10_19h32.31.406,visula search,2024.1.5,None,2024-10-10 19h32.46.142999 +0530,
116,0,116,0,225.8344858000055,,225.81286289996933,5,225.8344858000055,225.8344858000055,0.013782799942418933,227.1765604999382,[0.21944444444444444],[0.4305555555555556],[1],[0],[0],[1.3501007999293506],['target'],KK,001,2024-10-10_19h32.31.406,visula search,2024.1.5,None,2024-10-10 19h32.46.142999 +0530,
117,0,117,0,227.20123509992845,,227.17931849998422,5,227.20123509992845,227.20123509992845,0.014324399991892278,228.9423880999675,[0.42777777777777776],[0.023148148148148147],[1],[0],[0],[1.7488475000718608],['target'],KK,001,2024-10-10_19h32.31.406,visula search,2024.1.5,None,2024-10-10 19h32.46.142999 +0530,
118,0,118,0,228.98678099992685,,228.94570439995732,10,228.98678099992685,228.98678099992685,0.029916899977251887,230.5752714999253,[-0.25833333333333336],[-0.1814814814814815],[1],[0],[0],[1.6000585000729188],['target'],KK,001,2024-10-10_19h32.31.406,visula search,2024.1.5,None,2024-10-10 19h32.46.142999 +0530,
119,0,119,0,230.61573409999255,,230.57792619999964,10,230.61573409999255,230.61573409999255,0.026017999975010753,232.62501119996887,[-0.13703703703703704],[-0.028703703703703703],[1],[0],[0],[2.0212610999587923],['target'],KK,001,2024-10-10_19h32.31.406,visula search,2024.1.5,None,2024-10-10 19h32.46.142999 +0530,
120,0,120,0,232.6483719999669,,232.62751519994345,5,232.6483719999669,232.6483719999669,0.013460599933750927,235.49057110003196,[0.2814814814814815],[0.30648148148148147],[1],[0],[0],[2.849795800051652],['target'],KK,001,2024-10-10_19h32.31.406,visula search,2024.1.5,None,2024-10-10 19h32.46.142999 +0530,
121,0,121,0,235.53209260001313,,235.49361330003012,10,235.53209260001313,235.53209260001313,0.027066799928434193,238.40669299999718,[0.37777777777777777],[-0.2564814814814815],[1],[0],[0],[2.8862871000310406],['target'],KK,001,2024-10-10_19h32.31.406,visula search,2024.1.5,None,2024-10-10 19h32.46.142999 +0530,
122,0,122,0,238.4471444999799,,238.40930589998607,10,238.4471444999799,238.4471444999799,0.02652840001974255,240.33969960000832,[0.2611111111111111],[-0.28425925925925927],[1],[0],[0],[1.904042899957858],['target'],KK,001,2024-10-10_19h32.31.406,visula search,2024.1.5,None,2024-10-10 19h32.46.142999 +0530,
123,0,123,0,240.3660247999942,,240.3425357999513,5,240.3660247999942,240.3660247999942,0.015332400100305676,241.7216683999868,[0.058333333333333334],[0.12777777777777777],[1],[0],[0],[1.364031899953261],['target'],KK,001,2024-10-10_19h32.31.406,visula search,2024.1.5,None,2024-10-10 19h32.46.142999 +0530,
124,0,124,0,241.74626039993018,,241.7246662999969,5,241.74626039993018,241.74626039993018,0.014339099987410009,243.90421089995652,[-0.2722222222222222],[-0.21296296296296297],[1],[0],[0],[2.165470300009474],['target'],KK,001,2024-10-10_19h32.31.406,visula search,2024.1.5,None,2024-10-10 19h32.46.142999 +0530,
125,0,125,0,243.92897719994653,,243.9073114999337,5,243.92897719994653,243.92897719994653,0.014591899933293462,245.7882726000389,[0.3648148148148148],[0.3731481481481482],[1],[0],[0],[1.8665771000087261],['target'],KK,001,2024-10-10_19h32.31.406,visula search,2024.1.5,None,2024-10-10 19h32.46.142999 +0530,
126,0,126,0,245.81455459992867,,245.7916227999376,5,245.81455459992867,245.81455459992867,0.015499799977988005,247.52039319998585,[0.062037037037037036],[0.1287037037037037],[1],[0],[0],[1.7135795999784023],['target'],KK,001,2024-10-10_19h32.31.406,visula search,2024.1.5,None,2024-10-10 19h32.46.142999 +0530,
127,0,127,0,247.5485614000354,,247.52394630003255,5,247.5485614000354,247.5485614000354,0.016206400003284216,249.00279990001582,[-0.32314814814814813],[0.037037037037037035],[1],[0],[0],[1.4629775000503287],['target'],KK,001,2024-10-10_19h32.31.406,visula search,2024.1.5,None,2024-10-10 19h32.46.142999 +0530,
128,0,128,0,249.02892660000362,,249.0061824999284,5,249.02892660000362,249.02892660000362,0.015510500059463084,251.36895439994987,[0.032407407407407406],[-0.3731481481481482],[1],[0],[0],[2.3476669000228867],['target'],KK,001,2024-10-10_19h32.31.406,visula search,2024.1.5,None,2024-10-10 19h32.46.142999 +0530,
129,0,129,0,251.40998280001804,,251.37163279997185,10,251.40998280001804,251.40998280001804,0.026637000031769276,254.73426830000244,[-0.1712962962962963],[-0.45740740740740743],[1],[0],[0],[3.3362660000566393],['target'],KK,001,2024-10-10_19h32.31.406,visula search,2024.1.5,None,2024-10-10 19h32.46.142999 +0530,
130,0,130,0,254.77472069999203,,254.73679939995054,10,254.77472069999203,254.77472069999203,0.02639939996879548,256.71764980000444,[-0.36574074074074076],[0.07314814814814814],[1],[0],[0],[1.9546222999924794],['target'],KK,001,2024-10-10_19h32.31.406,visula search,2024.1.5,None,2024-10-10 19h32.46.142999 +0530,
131,0,131,0,256.75919549993705,,256.7202265999513,10,256.75919549993705,256.75919549993705,0.027389299939386547,258.7663830999518,[-0.03796296296296296],[-0.33796296296296297],[1],[0],[0],[2.01902250002604],['target'],KK,001,2024-10-10_19h32.31.406,visula search,2024.1.5,None,2024-10-10 19h32.46.142999 +0530,
132,0,132,0,258.80901560001075,,258.77017040003557,10,258.80901560001075,258.80901560001075,0.02746010001283139,261.2325243999949,[-0.3333333333333333],[0.11296296296296296],[1],[0],[0],[2.4350805999711156],['target'],KK,001,2024-10-10_19h32.31.406,visula search,2024.1.5,None,2024-10-10 19h32.46.142999 +0530,
133,0,133,0,261.25589649996255,,261.23524810001254,5,261.25589649996255,261.25589649996255,0.013415299938060343,263.0980004000012,[0.3212962962962963],[0.3675925925925926],[1],[0],[0],[1.8495647999225184],['target'],KK,001,2024-10-10_19h32.31.406,visula search,2024.1.5,None,2024-10-10 19h32.46.142999 +0530,
134,0,134,0,263.1233036000049,,263.10090520000085,5,263.1233036000049,263.1233036000049,0.014734099968336523,264.8813224999467,[-0.19166666666666668],[0.47314814814814815],[1],[0],[0],[1.765883699990809],['target'],KK,001,2024-10-10_19h32.31.406,visula search,2024.1.5,None,2024-10-10 19h32.46.142999 +0530,
135,0,135,0,264.9236462999834,,264.8839661999373,10,264.9236462999834,264.9236462999834,0.027930099982768297,267.86333259998355,[0.12314814814814815],[-0.262037037037037],[1],[0],[0],[2.9516547999810427],['target'],KK,001,2024-10-10_19h32.31.406,visula search,2024.1.5,None,2024-10-10 19h32.46.142999 +0530,
136,0,136,0,267.88747880002484,,267.8662058999762,5,267.88747880002484,267.88747880002484,0.013932099915109575,269.66292989999056,[0.2851851851851852],[-0.30648148148148147],[1],[0],[0],[1.7830254000145942],['target'],KK,001,2024-10-10_19h32.31.406,visula search,2024.1.5,None,2024-10-10 19h32.46.142999 +0530,
137,0,137,0,269.70669859996997,,269.66625399992336,10,269.70669859996997,269.70669859996997,0.02939199993852526,271.2622192000272,[0.13333333333333333],[0.19166666666666668],[1],[0],[0],[1.5669563999399543],['target'],KK,001,2024-10-10_19h32.31.406,visula search,2024.1.5,None,2024-10-10 19h32.46.142999 +0530,
138,0,138,0,271.3019991000183,,271.2649531000061,10,271.3019991000183,271.3019991000183,0.025734199909493327,273.27859769994393,[-0.2361111111111111],[-0.31574074074074077],[1],[0],[0],[1.9881202999968082],['target'],KK,001,2024-10-10_19h32.31.406,visula search,2024.1.5,None,2024-10-10 19h32.46.142999 +0530,
139,0,139,0,273.30197199992836,,273.28112539998256,5,273.30197199992836,273.30197199992836,0.013487800024449825,275.29424469999503,[-0.04722222222222222],[-0.10833333333333334],[1],[0],[0],[1.999812199966982],['target'],KK,001,2024-10-10_19h32.31.406,visula search,2024.1.5,None,2024-10-10 19h32.46.142999 +0530,
140,0,140,0,275.3356861999491,,275.29736979992595,10,275.3356861999491,275.3356861999491,0.027385400026105344,278.6263981999364,[-0.44722222222222224],[-0.3712962962962963],[1],[0],[0],[3.301990299951285],['target'],KK,001,2024-10-10_19h32.31.406,visula search,2024.1.5,None,2024-10-10 19h32.46.142999 +0530,
141,0,141,0,278.6675797000062,,278.62898239993956,10,278.6675797000062,278.6675797000062,0.027059699990786612,281.8924042999279,[0.4888888888888889],[0.5],[1],[0],[0],[3.236587000079453],['target'],KK,001,2024-10-10_19h32.31.406,visula search,2024.1.5,None,2024-10-10 19h32.46.142999 +0530,
142,0,142,0,281.93394369992893,,281.8950877999887,10,281.93394369992893,281.93394369992893,0.027653600089251995,283.6420035000192,[-0.25925925925925924],[0.375],[1],[0],[0],[1.7194490000838414],['target'],KK,001,2024-10-10_19h32.31.406,visula search,2024.1.5,None,2024-10-10 19h32.46.142999 +0530,
143,0,143,0,283.66566800000146,,283.6447518999921,5,283.66566800000146,283.66566800000146,0.013537300052121282,285.24170529993717,[-0.3453703703703704],[0.18611111111111112],[1],[0],[0],[1.5836302998941392],['target'],KK,001,2024-10-10_19h32.31.406,visula search,2024.1.5,None,2024-10-10 19h32.46.142999 +0530,
144,0,144,0,285.28268039994873,,285.2446482999949,10,285.28268039994873,285.28268039994873,0.02654699992854148,288.189887000015,[-0.05277777777777778],[-0.44722222222222224],[1],[0],[0],[2.9189996999921277],['target'],KK,001,2024-10-10_19h32.31.406,visula search,2024.1.5,None,2024-10-10 19h32.46.142999 +0530,
145,0,145,0,288.2296864000382,,288.192542499979,10,288.2296864000382,288.2296864000382,0.025990699999965727,289.9561732999282,[0.2861111111111111],[0.053703703703703705],[1],[0],[0],[1.737861100002192],['target'],KK,001,2024-10-10_19h32.31.406,visula search,2024.1.5,None,2024-10-10 19h32.46.142999 +0530,
146,0,146,0,289.9970709999325,,289.95889649994206,10,289.9970709999325,289.9970709999325,0.026342500001192093,291.47263899992686,[-0.12222222222222222],[-0.25277777777777777],[1],[0],[0],[1.4876122999703512],['target'],KK,001,2024-10-10_19h32.31.406,visula search,2024.1.5,None,2024-10-10 19h32.46.142999 +0530,
147,0,147,0,291.5126900000032,,291.4752187000122,10,291.5126900000032,291.5126900000032,0.02616210002452135,294.65501600003336,[-0.30833333333333335],[0.1712962962962963],[1],[0],[0],[3.1538292000768706],['target'],KK,001,2024-10-10_19h32.31.406,visula search,2024.1.5,None,2024-10-10 19h32.46.142999 +0530,
148,0,148,0,294.69588080001995,,294.6576406999957,10,294.69588080001995,294.69588080001995,0.02639180002734065,298.4534116999712,[-0.005555555555555556],[0.42685185185185187],[1],[0],[0],[3.7696377000538632],['target'],KK,001,2024-10-10_19h32.31.406,visula search,2024.1.5,None,2024-10-10 19h32.46.142999 +0530,
149,0,149,0,298.494565699948,,298.4560602999991,10,298.494565699948,298.494565699948,0.02693559997715056,299.90312889998313,[-0.30462962962962964],[0.2935185185185185],[1],[0],[0],[1.4203855999512598],['target'],KK,001,2024-10-10_19h32.31.406,visula search,2024.1.5,None,2024-10-10 19h32.46.142999 +0530,
150,0,150,0,299.94317779992707,,299.9058796999743,10,299.94317779992707,299.94317779992707,0.025897599989548326,303.3853256999282,[0.46296296296296297],[-0.053703703703703705],[1],[0],[0],[3.4538348999340087],['target'],KK,001,2024-10-10_19h32.31.406,visula search,2024.1.5,None,2024-10-10 19h32.46.142999 +0530,
151,0,151,0,303.42625889997,,303.38797109993175,10,303.42625889997,303.42625889997,0.02603910001926124,305.35140059993137,[-0.05740740740740741],[-0.028703703703703703],[1],[0],[0],[1.9375759999966249],['target'],KK,001,2024-10-10_19h32.31.406,visula search,2024.1.5,None,2024-10-10 19h32.46.142999 +0530,
152,0,152,0,305.4603710999945,,305.3539003999904,10,305.4603710999945,305.4603710999945,0.09383509994950145,307.7007909999229,[-0.06481481481481481],[-0.2935185185185185],[1],[0],[0],[2.253249099943787],['target'],KK,001,2024-10-10_19h32.31.406,visula search,2024.1.5,None,2024-10-10 19h32.46.142999 +0530,
153,0,153,0,307.74038329999894,,307.70327159995213,10,307.74038329999894,307.74038329999894,0.025841400027275085,310.6828428999288,[-0.14074074074074075],[0.10833333333333334],[1],[0],[0],[2.9539407999254763],['target'],KK,001,2024-10-10_19h32.31.406,visula search,2024.1.5,None,2024-10-10 19h32.46.142999 +0530,
154,0,154,0,310.72331769997254,,310.6855988999596,10,310.72331769997254,310.72331769997254,0.026361300027929246,313.39874939993024,[-0.09814814814814815],[-0.45092592592592595],[1],[0],[0],[2.687081699958071],['target'],KK,001,2024-10-10_19h32.31.406,visula search,2024.1.5,None,2024-10-10 19h32.46.142999 +0530,
155,0,155,0,313.4229114999762,,313.40145929995924,5,313.4229114999762,313.4229114999762,0.013620599987916648,314.86449820001144,[-0.4361111111111111],[-0.2064814814814815],[1],[0],[0],[1.4496424000244588],['target'],KK,001,2024-10-10_19h32.31.406,visula search,2024.1.5,None,2024-10-10 19h32.46.142999 +0530,
156,0,156,0,314.905973099987,,314.8672969000181,10,314.905973099987,314.905973099987,0.027463700040243566,316.56434539996553,[0.17592592592592593],[0.19907407407407407],[1],[0],[0],[1.6698663000715896],['target'],KK,001,2024-10-10_19h32.31.406,visula search,2024.1.5,None,2024-10-10 19h32.46.142999 +0530,
157,0,157,0,316.6054115999723,,316.56707180000376,10,316.6054115999723,316.6054115999723,0.02690999989863485,318.31353039992973,[-0.23425925925925925],[-0.22962962962962963],[1],[0],[0],[1.7196281999349594],['target'],KK,001,2024-10-10_19h32.31.406,visula search,2024.1.5,None,2024-10-10 19h32.46.142999 +0530,
158,0,158,0,318.33846490003634,,318.3162579999771,5,318.33846490003634,318.33846490003634,0.014558000024408102,320.11391139996704,[0.3675925925925926],[-0.32314814814814813],[1],[0],[0],[1.7833529999479651],['target'],KK,001,2024-10-10_19h32.31.406,visula search,2024.1.5,None,2024-10-10 19h32.46.142999 +0530,
159,0,159,0,320.1553946000058,,320.1166210999945,10,320.1553946000058,320.1553946000058,0.02726879995316267,321.6454322999343,[-0.022222222222222223],[-0.45740740740740743],[1],[0],[0],[1.501785899978131],['target'],KK,001,2024-10-10_19h32.31.406,visula search,2024.1.5,None,2024-10-10 19h32.46.142999 +0530,
160,0,160,0,321.68810659996234,,321.6480235999916,10,321.68810659996234,321.68810659996234,0.02794009994249791,323.11321670003235,[-0.06481481481481481],[0.34629629629629627],[1],[0],[0],[1.4374450999312103],['target'],KK,001,2024-10-10_19h32.31.406,visula search,2024.1.5,None,2024-10-10 19h32.46.142999 +0530,
161,0,161,0,323.1525594999548,,323.11582599999383,10,323.1525594999548,323.1525594999548,0.025608000112697482,325.09516299993265,[0.06944444444444445],[-0.2861111111111111],[1],[0],[0],[1.9539550000336021],['target'],KK,001,2024-10-10_19h32.31.406,visula search,2024.1.5,None,2024-10-10 19h32.46.142999 +0530,
162,0,162,0,325.13506999996025,,325.0978669000324,10,325.13506999996025,325.13506999996025,0.026069900020956993,326.4458012999967,[0.4185185185185185],[-0.24722222222222223],[1],[0],[0],[1.322077399934642],['target'],KK,001,2024-10-10_19h32.31.406,visula search,2024.1.5,None,2024-10-10 19h32.46.142999 +0530,
163,0,163,0,326.48502239992376,,326.4483516999753,10,326.48502239992376,326.48502239992376,0.02557699999306351,328.19396599999163,[0.35],[0.22685185185185186],[1],[0],[0],[1.7202467999886721],['target'],KK,001,2024-10-10_19h32.31.406,visula search,2024.1.5,None,2024-10-10 19h32.46.142999 +0530,
164,0,164,0,328.2339364000363,,328.1966334999306,10,328.2339364000363,328.2339364000363,0.025896100094541907,330.9265307999449,[-0.2796296296296296],[0.29444444444444445],[1],[0],[0],[2.7042057000799105],['target'],KK,001,2024-10-10_19h32.31.406,visula search,2024.1.5,None,2024-10-10 19h32.46.142999 +0530,
165,0,165,0,330.9661761999596,,330.9290695999516,10,330.9661761999596,330.9661761999596,0.025741899968124926,332.97533159994055,[-0.06111111111111111],[0.20185185185185187],[1],[0],[0],[2.020678599947132],['target'],KK,001,2024-10-10_19h32.31.406,visula search,2024.1.5,None,2024-10-10 19h32.46.142999 +0530,
166,0,166,0,332.9990936999675,,332.97805959999096,5,332.9990936999675,332.9990936999675,0.01375359995290637,334.57539739995264,[-0.4222222222222222],[-0.3925925925925926],[1],[0],[0],[1.583790099946782],['target'],KK,001,2024-10-10_19h32.31.406,visula search,2024.1.5,None,2024-10-10 19h32.46.142999 +0530,
167,0,167,0,334.61779169994406,,334.5785756999394,10,334.61779169994406,334.61779169994406,0.02817839989438653,335.9586965999333,[-0.07222222222222222],[-0.2601851851851852],[1],[0],[0],[1.3523301999084651],['target'],KK,001,2024-10-10_19h32.31.406,visula search,2024.1.5,None,2024-10-10 19h32.46.142999 +0530,
168,0,168,0,336.00282719999086,,335.96144220000133,10,336.00282719999086,336.00282719999086,0.029197100084275007,338.14082460000645,[0.4101851851851852],[0.48518518518518516],[1],[0],[0],[2.150216600042768],[],KK,001,2024-10-10_19h32.31.406,visula search,2024.1.5,None,2024-10-10 19h32.46.142999 +0530,
169,0,169,0,338.1840030000312,,338.14386750000995,10,338.1840030000312,338.1840030000312,0.028570099966600537,341.1895278999582,[0.3212962962962963],[-0.43148148148148147],[1],[0],[0],[3.0173397000180557],['target'],KK,001,2024-10-10_19h32.31.406,visula search,2024.1.5,None,2024-10-10 19h32.46.142999 +0530,
170,0,170,0,341.2142978999764,,341.19217109994497,5,341.2142978999764,341.2142978999764,0.014470399939455092,342.08913420001045,[0.22870370370370371],[-0.39537037037037037],[1],[0],[0],[0.8826911000069231],[],KK,001,2024-10-10_19h32.31.406,visula search,2024.1.5,None,2024-10-10 19h32.46.142999 +0530,
171,0,171,0,342.1158892000094,,342.0923424999928,5,342.1158892000094,342.1158892000094,0.016079400083981454,343.75559279997833,[-0.19722222222222222],[-0.1648148148148148],[1],[0],[0],[1.6475646999897435],['target'],KK,001,2024-10-10_19h32.31.406,visula search,2024.1.5,None,2024-10-10 19h32.46.142999 +0530,
172,0,172,0,343.7796646000352,,343.7584725000197,5,343.7796646000352,343.7796646000352,0.01396410004235804,345.38797289994545,[-0.040740740740740744],[-0.23333333333333334],[1],[0],[0],[1.6157872000476345],['target'],KK,001,2024-10-10_19h32.31.406,visula search,2024.1.5,None,2024-10-10 19h32.46.142999 +0530,
173,0,173,0,345.4313287999248,,345.39089439995587,10,345.4313287999248,345.4313287999248,0.028694499982520938,348.15454349992797,[0.14814814814814814],[-0.3287037037037037],[1],[0],[0],[2.735251099918969],['target'],KK,001,2024-10-10_19h32.31.406,visula search,2024.1.5,None,2024-10-10 19h32.46.142999 +0530,
174,0,174,0,348.19834030000493,,348.15741470002104,10,348.19834030000493,348.19834030000493,0.029011699953116477,350.4039977999637,[-0.22777777777777777],[0.019444444444444445],[1],[0],[0],[2.2176895999582484],[],KK,001,2024-10-10_19h32.31.406,visula search,2024.1.5,None,2024-10-10 19h32.46.142999 +0530,
175,0,175,0,350.42764859995805,,350.4066835999256,5,350.42764859995805,350.42764859995805,0.013555900077335536,351.3694142999593,[-0.3435185185185185],[0.11203703703703703],[1],[0],[0],[0.9494022000581026],['target'],KK,001,2024-10-10_19h32.31.406,visula search,2024.1.5,None,2024-10-10 19h32.46.142999 +0530,
176,0,176,0,351.4139614999294,,351.3724687999347,10,351.4139614999294,351.4139614999294,0.02889279997907579,353.4688844999764,[0.38425925925925924],[0.37777777777777777],[1],[0],[0],[2.0678586000576615],['target'],KK,001,2024-10-10_19h32.31.406,visula search,2024.1.5,None,2024-10-10 19h32.46.142999 +0530,
177,0,177,0,353.5092483999906,,353.47162219998427,10,353.5092483999906,353.5092483999906,0.025929899886250496,355.15202479995787,[-0.1824074074074074],[0.23796296296296296],[1],[0],[0],[1.654714799951762],['target'],KK,001,2024-10-10_19h32.31.406,visula search,2024.1.5,None,2024-10-10 19h32.46.142999 +0530,
178,0,178,0,355.19528550002724,,355.15507239999715,10,355.19528550002724,355.19528550002724,0.028633899986743927,357.184910699958,[-0.36574074074074076],[-0.18796296296296297],[1],[0],[0],[2.001517500029877],['target'],KK,001,2024-10-10_19h32.31.406,visula search,2024.1.5,None,2024-10-10 19h32.46.142999 +0530,
179,0,179,0,357.20790899998974,,357.18747250002343,5,357.20790899998974,357.20790899998974,0.013046999927610159,359.3838633999694,[-0.3194444444444444],[-0.017592592592592594],[1],[0],[0],[2.183501899940893],['target'],KK,001,2024-10-10_19h32.31.406,visula search,2024.1.5,None,2024-10-10 19h32.46.142999 +0530,
180,0,180,0,359.4269118999364,,359.3872985999333,10,359.4269118999364,359.4269118999364,0.028645899961702526,360.78364879998844,[-0.3537037037037037],[0.26666666666666666],[1],[0],[0],[1.3680974999442697],['target'],KK,001,2024-10-10_19h32.31.406,visula search,2024.1.5,None,2024-10-10 19h32.46.142999 +0530,
181,0,181,0,360.807057900005,,360.7862749999622,5,360.807057900005,360.807057900005,0.013368499930948019,362.6499316999689,[-0.20462962962962963],[-0.4101851851851852],[1],[0],[0],[1.8504255999578163],['target'],KK,001,2024-10-10_19h32.31.406,visula search,2024.1.5,None,2024-10-10 19h32.46.142999 +0530,
182,0,182,0,362.6794181999285,,362.65418449998833,5,362.6794181999285,362.6794181999285,0.018017199938185513,363.9821935000364,[0.17037037037037037],[-0.23055555555555557],[1],[0],[0],[1.3105512000620365],['target'],KK,001,2024-10-10_19h32.31.406,visula search,2024.1.5,None,2024-10-10 19h32.46.142999 +0530,
183,0,183,0,364.0074456000002,,363.9849469999317,5,364.0074456000002,364.0074456000002,0.014576199930161238,367.39794059994165,[0.028703703703703703],[0.04259259259259259],[1],[0],[0],[3.39868209999986],[],KK,001,2024-10-10_19h32.31.406,visula search,2024.1.5,None,2024-10-10 19h32.46.142999 +0530,
184,0,184,0,367.44190390000585,,367.4009442999959,10,367.44190390000585,367.44190390000585,0.028763099922798574,370.2473366999766,[0.2037037037037037],[0.5],[1],[0],[0],[2.8179272999987006],['target'],KK,001,2024-10-10_19h32.31.406,visula search,2024.1.5,None,2024-10-10 19h32.46.142999 +0530,
185,0,185,0,370.28766829997767,,370.25001750001684,10,370.28766829997767,370.28766829997767,0.026325399987399578,371.9132230000105,[0.21388888888888888],[0.31203703703703706],[1],[0],[0],[1.6371226999908686],['target'],KK,001,2024-10-10_19h32.31.406,visula search,2024.1.5,None,2024-10-10 19h32.46.142999 +0530,
186,0,186,0,371.93776739994064,,371.9161152000306,5,371.93776739994064,371.93776739994064,0.014468999928794801,373.7128052000189,[0.31203703703703706],[-0.027777777777777776],[1],[0],[0],[1.7824152000248432],['target'],KK,001,2024-10-10_19h32.31.406,visula search,2024.1.5,None,2024-10-10 19h32.46.142999 +0530,
187,0,187,0,373.7571121000219,,373.7165045000147,10,373.7571121000219,373.7571121000219,0.029210599954240024,374.9124169999268,[0.15925925925925927],[0.053703703703703705],[1],[0],[0],[1.1671489999862388],['target'],KK,001,2024-10-10_19h32.31.406,visula search,2024.1.5,None,2024-10-10 19h32.46.142999 +0530,
188,0,188,0,374.9527325000381,,374.91497829998843,10,374.9527325000381,374.9527325000381,0.02641689998563379,376.31213450001087,[-0.33425925925925926],[0.06388888888888888],[1],[0],[0],[1.3709250000538304],['target'],KK,001,2024-10-10_19h32.31.406,visula search,2024.1.5,None,2024-10-10 19h32.46.142999 +0530,
189,0,189,0,376.3360311000142,,376.31464029999916,5,376.3360311000142,376.3360311000142,0.013662399956956506,378.8109054999659,[0.2537037037037037],[0.3861111111111111],[1],[0],[0],[2.482801799895242],['target'],KK,001,2024-10-10_19h32.31.406,visula search,2024.1.5,None,2024-10-10 19h32.46.142999 +0530,
190,0,190,0,378.85292640002444,,378.8139721000334,10,378.85292640002444,378.85292640002444,0.026986600016243756,381.80889530002605,[-0.4888888888888889],[-0.17685185185185184],[1],[0],[0],[2.968108700006269],['target'],KK,001,2024-10-10_19h32.31.406,visula search,2024.1.5,None,2024-10-10 19h32.46.142999 +0530,
191,0,191,0,381.86064830003306,,381.8157516999636,5,381.86064830003306,381.86064830003306,0.03054309997241944,383.29312879999634,[-0.1712962962962963],[-0.04259259259259259],[1],[0],[0],[1.4478830000152811],['target'],KK,001,2024-10-10_19h32.31.406,visula search,2024.1.5,None,2024-10-10 19h32.46.142999 +0530,
192,0,192,0,383.34499459993094,,383.29959489998873,5,383.34499459993094,383.34499459993094,0.03131190000567585,385.0587497999659,[0.08333333333333333],[0.48703703703703705],[1],[0],[0],[1.728813900030218],['target'],KK,001,2024-10-10_19h32.31.406,visula search,2024.1.5,None,2024-10-10 19h32.46.142999 +0530,
193,0,193,0,385.1085560999345,,385.0652696000179,5,385.1085560999345,385.1085560999345,0.028478399966843426,386.274906000006,[0.06111111111111111],[0.2574074074074074],[1],[0],[0],[1.1822001000400633],['target'],KK,001,2024-10-10_19h32.31.406,visula search,2024.1.5,None,2024-10-10 19h32.46.142999 +0530,
194,0,194,0,386.3485744999489,,386.2791945999488,10,386.3485744999489,386.3485744999489,0.05118489998858422,387.7243606999982,[0.19074074074074074],[0.2388888888888889],[1],[0],[0],[1.3949577999301255],['target'],KK,001,2024-10-10_19h32.31.406,visula search,2024.1.5,None,2024-10-10 19h32.46.142999 +0530,
195,0,195,0,387.7652904000133,,387.7272209000075,10,387.7652904000133,387.7652904000133,0.026633000001311302,390.1569561000215,[-0.1],[-0.45740740740740743],[1],[0],[0],[2.403401500079781],['target'],KK,001,2024-10-10_19h32.31.406,visula search,2024.1.5,None,2024-10-10 19h32.46.142999 +0530,
196,0,196,0,390.1840399999637,,390.1599937999854,5,390.1840399999637,390.1840399999637,0.016676399973221123,391.63955630001146,[-0.325],[0.1935185185185185],[1],[0],[0],[1.4634260999737307],['target'],KK,001,2024-10-10_19h32.31.406,visula search,2024.1.5,None,2024-10-10 19h32.46.142999 +0530,
197,0,197,0,391.6838036000263,,391.6426733999979,10,391.6838036000263,391.6838036000263,0.02789150003809482,393.0560702999355,[-0.19907407407407407],[0.1935185185185185],[1],[0],[0],[1.3858287999173626],['target'],KK,001,2024-10-10_19h32.31.406,visula search,2024.1.5,None,2024-10-10 19h32.46.142999 +0530,
198,0,198,0,393.0795959000243,,393.05854549992364,5,393.0795959000243,393.0795959000243,0.013221199973486364,394.08928439999,[-0.3787037037037037],[0.13055555555555556],[1],[0],[0],[1.0177133000688627],['target'],KK,001,2024-10-10_19h32.31.406,visula search,2024.1.5,None,2024-10-10 19h32.46.142999 +0530,
199,0,199,0,394.13615669996943,,394.09301690000575,10,394.13615669996943,394.13615669996943,0.031006100005470216,395.2886911999667,[-0.2537037037037037],[0.2833333333333333],[1],[0],[0],[1.1652476999443024],['target'],KK,001,2024-10-10_19h32.31.406,visula search,2024.1.5,None,2024-10-10 19h32.46.142999 +0530,
