trials.thisRepN,trials.thisTrialN,trials.thisN,trials.thisIndex,thisRow.t,notes,trial.started,num_distr,fixation.started,target.started,mouse.started,trial.stopped,mouse.x,mouse.y,mouse.leftButton,mouse.midButton,mouse.rightButton,mouse.time,mouse.clicked_name,participant,session,date,expName,psychopyVersion,frameRate,expStart,
0,0,0,0,0.031600600108504295,,0.004571800003759563,5,0.031600600108504295,0.031600600108504295,0.02308650000486523,2.276178600033745,[-0.09351851851851851],[-0.26851851851851855],[1],[0],[0],[2.25249789992813],['target'],TK,001,2024-10-10_19h40.06.592,visula search,2024.1.5,None,2024-10-10 19h40.22.567699 +0530,
1,0,1,0,2.3020462000276893,,2.2797426000470296,5,2.3020462000276893,2.3020462000276893,0.015266899950802326,5.208724800031632,[-0.4925925925925926],[0.44814814814814813],[1],[0],[0],[2.914037700043991],['target'],TK,001,2024-10-10_19h40.06.592,visula search,2024.1.5,None,2024-10-10 19h40.22.567699 +0530,
2,0,2,0,5.250938600045629,,5.211394200101495,10,5.250938600045629,5.250938600045629,0.02754170005209744,6.641453000018373,[0.05555555555555555],[0.4287037037037037],[1],[0],[0],[1.4027184000005946],['target'],TK,001,2024-10-10_19h40.06.592,visula search,2024.1.5,None,2024-10-10 19h40.22.567699 +0530,
3,0,3,0,6.66534840001259,,6.644123800098896,5,6.66534840001259,6.66534840001259,0.013968100072816014,8.124420500011183,[0.13518518518518519],[0.03333333333333333],[1],[0],[0],[1.4665028000017628],['target'],TK,001,2024-10-10_19h40.06.592,visula search,2024.1.5,None,2024-10-10 19h40.22.567699 +0530,
4,0,4,0,8.150182300014421,,8.127418900025077,5,8.150182300014421,8.150182300014421,0.01582039997447282,9.574805200099945,[0.1175925925925926],[0.4351851851851852],[1],[0],[0],[1.4316688000690192],['target'],TK,001,2024-10-10_19h40.06.592,visula search,2024.1.5,None,2024-10-10 19h40.22.567699 +0530,
5,0,5,0,9.62076600000728,,9.579504500026815,10,9.62076600000728,9.62076600000728,0.03081020002719015,11.906572400010191,[-0.4564814814814815],[-0.27870370370370373],[1],[0],[0],[2.2968091999646276],['target'],TK,001,2024-10-10_19h40.06.592,visula search,2024.1.5,None,2024-10-10 19h40.22.567699 +0530,
6,0,6,0,11.931129700038582,,11.909207200049423,5,11.931129700038582,11.931129700038582,0.014267400023527443,13.406677799997851,[-0.03981481481481482],[0.15925925925925927],[1],[0],[0],[1.48339000006672],['target'],TK,001,2024-10-10_19h40.06.592,visula search,2024.1.5,None,2024-10-10 19h40.22.567699 +0530,
7,0,7,0,13.44885200005956,,13.409194400068372,10,13.44885200005956,13.44885200005956,0.027235500048846006,14.989295200095512,[0.4740740740740741],[0.287962962962963],[1],[0],[0],[1.5530384000157937],['target'],TK,001,2024-10-10_19h40.06.592,visula search,2024.1.5,None,2024-10-10 19h40.22.567699 +0530,
8,0,8,0,15.013799100066535,,14.991854000021704,5,15.013799100066535,15.013799100066535,0.014036600012332201,16.47259490005672,[-0.2574074074074074],[0.18333333333333332],[1],[0],[0],[1.4669163000071421],['target'],TK,001,2024-10-10_19h40.06.592,visula search,2024.1.5,None,2024-10-10 19h40.22.567699 +0530,
9,0,9,0,16.499373300001025,,16.47625200008042,5,16.499373300001025,16.499373300001025,0.01520280004478991,18.02173080004286,[-0.28055555555555556],[0.01574074074074074],[1],[0],[0],[1.5308374000014737],['target'],TK,001,2024-10-10_19h40.06.592,visula search,2024.1.5,None,2024-10-10 19h40.22.567699 +0530,
10,0,10,0,18.064034500042908,,18.025575500098057,10,18.064034500042908,18.064034500042908,0.027797600021585822,20.55469240003731,[-0.3472222222222222],[0.07962962962962963],[1],[0],[0],[2.5016045999946073],['target'],TK,001,2024-10-10_19h40.06.592,visula search,2024.1.5,None,2024-10-10 19h40.22.567699 +0530,
11,0,11,0,20.578674200107343,,20.557194799999706,5,20.578674200107343,20.578674200107343,0.014077199972234666,22.620613900013268,[-0.36666666666666664],[-0.1037037037037037],[1],[0],[0],[2.0495003999676555],['target'],TK,001,2024-10-10_19h40.06.592,visula search,2024.1.5,None,2024-10-10 19h40.22.567699 +0530,
12,0,12,0,22.664095800020732,,22.624332200037315,10,22.664095800020732,22.664095800020732,0.02849420008715242,25.18585480004549,[-0.11944444444444445],[-0.25092592592592594],[1],[0],[0],[2.533413000055589],['target'],TK,001,2024-10-10_19h40.06.592,visula search,2024.1.5,None,2024-10-10 19h40.22.567699 +0530,
13,0,13,0,25.22721260006074,,25.188593700062484,10,25.22721260006074,25.22721260006074,0.02669079997576773,27.25235490000341,[0.2796296296296296],[0.17314814814814813],[1],[0],[0],[2.0372935999184847],['target'],TK,001,2024-10-10_19h40.06.592,visula search,2024.1.5,None,2024-10-10 19h40.22.567699 +0530,
14,0,14,0,27.292661000043154,,27.25500980007928,10,27.292661000043154,27.292661000043154,0.026434400002472103,29.5348300000187,[0.21296296296296297],[-0.2777777777777778],[1],[0],[0],[2.2536333000753075],['target'],TK,001,2024-10-10_19h40.06.592,visula search,2024.1.5,None,2024-10-10 19h40.22.567699 +0530,
15,0,15,0,29.55991820001509,,29.537639400106855,5,29.55991820001509,29.55991820001509,0.014071300043724477,30.78456759999972,[0.0],[-0.1287037037037037],[1],[0],[0],[1.2331174000864848],['target'],TK,001,2024-10-10_19h40.06.592,visula search,2024.1.5,None,2024-10-10 19h40.22.567699 +0530,
16,0,16,0,30.8268671000842,,30.78724500001408,10,30.8268671000842,30.8268671000842,0.0276068999664858,32.51697670004796,[-0.31851851851851853],[0.08055555555555556],[1],[0],[0],[1.7023449999978766],['target'],TK,001,2024-10-10_19h40.06.592,visula search,2024.1.5,None,2024-10-10 19h40.22.567699 +0530,
17,0,17,0,32.54301290004514,,32.52025780000258,5,32.54301290004514,32.54301290004514,0.015014400007203221,34.33317270001862,[0.3111111111111111],[0.041666666666666664],[1],[0],[0],[1.7981842999579385],['target'],TK,001,2024-10-10_19h40.06.592,visula search,2024.1.5,None,2024-10-10 19h40.22.567699 +0530,
18,0,18,0,34.359315200010315,,34.33614380005747,5,34.359315200010315,34.359315200010315,0.015565100009553134,36.79922800010536,[0.012962962962962963],[0.022222222222222223],[1],[0],[0],[2.4478635999839753],['target'],TK,001,2024-10-10_19h40.06.592,visula search,2024.1.5,None,2024-10-10 19h40.22.567699 +0530,
19,0,19,0,36.84086420002859,,36.80217180005275,10,36.84086420002859,36.84086420002859,0.02718859992455691,38.79846400010865,[-0.38796296296296295],[0.01574074074074074],[1],[0],[0],[1.9693980999290943],['target'],TK,001,2024-10-10_19h40.06.592,visula search,2024.1.5,None,2024-10-10 19h40.22.567699 +0530,
20,0,20,0,38.82274200010579,,38.801143100019544,5,38.82274200010579,38.82274200010579,0.01410050003323704,39.74852670007385,[-0.4101851851851852],[0.07037037037037037],[1],[0],[0],[0.9333810999523848],['target'],TK,001,2024-10-10_19h40.06.592,visula search,2024.1.5,None,2024-10-10 19h40.22.567699 +0530,
21,0,21,0,39.7738326000981,,39.751396500039846,5,39.7738326000981,39.7738326000981,0.014792399946600199,42.31379000004381,[0.05648148148148148],[-0.46296296296296297],[1],[0],[0],[2.5478499999735504],['target'],TK,001,2024-10-10_19h40.06.592,visula search,2024.1.5,None,2024-10-10 19h40.22.567699 +0530,
22,0,22,0,42.3591996000614,,42.316692400025204,10,42.3591996000614,42.3591996000614,0.028322200058028102,43.69682210008614,[-0.3388888888888889],[-0.17685185185185184],[1],[0],[0],[1.3519962000427768],['target'],TK,001,2024-10-10_19h40.06.592,visula search,2024.1.5,None,2024-10-10 19h40.22.567699 +0530,
23,0,23,0,43.73969740001485,,43.699540900066495,10,43.73969740001485,43.73969740001485,0.026866300031542778,45.01354930002708,[-0.21203703703703702],[0.22592592592592592],[1],[0],[0],[1.2873290999559686],['target'],TK,001,2024-10-10_19h40.06.592,visula search,2024.1.5,None,2024-10-10 19h40.22.567699 +0530,
24,0,24,0,45.043800500105135,,45.01708170003258,5,45.043800500105135,45.043800500105135,0.017689500004053116,47.74564780003857,[0.36944444444444446],[-0.337037037037037],[1],[0],[0],[2.7112720999866724],['target'],TK,001,2024-10-10_19h40.06.592,visula search,2024.1.5,None,2024-10-10 19h40.22.567699 +0530,
25,0,25,0,47.77256860001944,,47.749049900099635,5,47.77256860001944,47.77256860001944,0.015310099930502474,50.594807800021954,[-0.4101851851851852],[0.33425925925925926],[1],[0],[0],[2.8307320000603795],['target'],TK,001,2024-10-10_19h40.06.592,visula search,2024.1.5,None,2024-10-10 19h40.22.567699 +0530,
26,0,26,0,50.62343480007257,,50.59839100006502,5,50.62343480007257,50.62343480007257,0.016193200019188225,53.26011140004266,[-0.22592592592592592],[-0.42314814814814816],[1],[0],[0],[2.6459444999927655],['target'],TK,001,2024-10-10_19h40.06.592,visula search,2024.1.5,None,2024-10-10 19h40.22.567699 +0530,
27,0,27,0,53.28723990009166,,53.263284600107,5,53.28723990009166,53.28723990009166,0.01596300001256168,55.14338700007647,[0.03611111111111111],[-0.08796296296296297],[1],[0],[0],[1.864417799981311],['target'],TK,001,2024-10-10_19h40.06.592,visula search,2024.1.5,None,2024-10-10 19h40.22.567699 +0530,
28,0,28,0,55.17115589999594,,55.1470712000737,5,55.17115589999594,55.17115589999594,0.01716139994096011,56.226546300109476,[-0.049074074074074076],[-0.08518518518518518],[1],[0],[0],[1.0629237999673933],['target'],TK,001,2024-10-10_19h40.06.592,visula search,2024.1.5,None,2024-10-10 19h40.22.567699 +0530,
29,0,29,0,56.27522940002382,,56.22952070005704,10,56.27522940002382,56.27522940002382,0.031019399990327656,58.2763081000885,[0.19722222222222222],[0.3111111111111111],[1],[0],[0],[2.0160714000230655],['target'],TK,001,2024-10-10_19h40.06.592,visula search,2024.1.5,None,2024-10-10 19h40.22.567699 +0530,
30,0,30,0,58.30122860008851,,58.27898860001005,5,58.30122860008851,58.30122860008851,0.014027199940755963,59.492146000033244,[0.22314814814814815],[0.27314814814814814],[1],[0],[0],[1.1993387000402436],['target'],TK,001,2024-10-10_19h40.06.592,visula search,2024.1.5,None,2024-10-10 19h40.22.567699 +0530,
31,0,31,0,59.5180022000568,,59.49489000008907,5,59.5180022000568,59.5180022000568,0.014779900084249675,61.04151500004809,[0.30277777777777776],[-0.24444444444444444],[1],[0],[0],[1.532067499938421],['target'],TK,001,2024-10-10_19h40.06.592,visula search,2024.1.5,None,2024-10-10 19h40.22.567699 +0530,
32,0,32,0,61.08758320007473,,61.044901300105266,10,61.08758320007473,61.08758320007473,0.030733199906535447,62.9577143000206,[-0.12222222222222222],[0.23148148148148148],[1],[0],[0],[1.8823878000257537],['target'],TK,001,2024-10-10_19h40.06.592,visula search,2024.1.5,None,2024-10-10 19h40.22.567699 +0530,
33,0,33,0,62.982926000026055,,62.960712900036015,5,62.982926000026055,62.982926000026055,0.01383059995714575,64.09075040009338,[0.1675925925925926],[-0.08796296296296297],[1],[0],[0],[1.116437999997288],['target'],TK,001,2024-10-10_19h40.06.592,visula search,2024.1.5,None,2024-10-10 19h40.22.567699 +0530,
34,0,34,0,64.11903520009946,,64.09450260002632,5,64.11903520009946,64.11903520009946,0.0165127000072971,65.57308050000574,[-0.22037037037037038],[0.32407407407407407],[1],[0],[0],[1.4624173999764025],['target'],TK,001,2024-10-10_19h40.06.592,visula search,2024.1.5,None,2024-10-10 19h40.22.567699 +0530,
35,0,35,0,65.59860100003425,,65.57587350008544,5,65.59860100003425,65.59860100003425,0.014417900005355477,68.00613160000648,[0.3787037037037037],[-0.20185185185185187],[1],[0],[0],[2.4160791999893263],['target'],TK,001,2024-10-10_19h40.06.592,visula search,2024.1.5,None,2024-10-10 19h40.22.567699 +0530,
36,0,36,0,68.0315680000931,,68.00907240004744,5,68.0315680000931,68.0315680000931,0.014887399971485138,69.55529020004906,[-0.3055555555555556],[-0.019444444444444445],[1],[0],[0],[1.5315847999881953],['target'],TK,001,2024-10-10_19h40.06.592,visula search,2024.1.5,None,2024-10-10 19h40.22.567699 +0530,
37,0,37,0,69.58105560007971,,69.55810780008323,5,69.58105560007971,69.58105560007971,0.014997499994933605,71.27113570005167,[-0.34444444444444444],[0.13148148148148148],[1],[0],[0],[1.6982442000880837],['target'],TK,001,2024-10-10_19h40.06.592,visula search,2024.1.5,None,2024-10-10 19h40.22.567699 +0530,
38,0,38,0,71.29744400002528,,71.2741798000643,5,71.29744400002528,71.29744400002528,0.01518190000206232,75.25340680009685,[0.36944444444444446],[0.49537037037037035],[1],[0],[0],[3.964379799901508],['target'],TK,001,2024-10-10_19h40.06.592,visula search,2024.1.5,None,2024-10-10 19h40.22.567699 +0530,
39,0,39,0,75.27980550006032,,75.25644870009273,5,75.27980550006032,75.27980550006032,0.014689599978737533,76.76967609999701,[0.1388888888888889],[-0.09444444444444444],[1],[0],[0],[1.4988364999881014],['target'],TK,001,2024-10-10_19h40.06.592,visula search,2024.1.5,None,2024-10-10 19h40.22.567699 +0530,
40,0,40,0,76.81545790005475,,76.7726805000566,10,76.81545790005475,76.81545790005475,0.029660800006240606,77.73663490009494,[0.2722222222222222],[-0.08796296296296297],[1],[0],[0],[0.9345108999405056],['target'],TK,001,2024-10-10_19h40.06.592,visula search,2024.1.5,None,2024-10-10 19h40.22.567699 +0530,
41,0,41,0,77.76508800010197,,77.73963690001983,5,77.76508800010197,77.76508800010197,0.016629999969154596,79.45221330004279,[0.18611111111111112],[0.33240740740740743],[1],[0],[0],[1.6961372999940068],['target'],TK,001,2024-10-10_19h40.06.592,visula search,2024.1.5,None,2024-10-10 19h40.22.567699 +0530,
42,0,42,0,79.49678310006857,,79.45577250001952,10,79.49678310006857,79.49678310006857,0.02826279995497316,83.46754440001678,[0.04259259259259259],[0.44537037037037036],[1],[0],[0],[3.9839468999998644],['target'],TK,001,2024-10-10_19h40.06.592,visula search,2024.1.5,None,2024-10-10 19h40.22.567699 +0530,
43,0,43,0,83.50900760001969,,83.47012260009069,10,83.50900760001969,83.50900760001969,0.02611480001360178,85.0673082000576,[0.20555555555555555],[0.05555555555555555],[1],[0],[0],[1.5712212999351323],['target'],TK,001,2024-10-10_19h40.06.592,visula search,2024.1.5,None,2024-10-10 19h40.22.567699 +0530,
44,0,44,0,85.112431100104,,85.0701234000735,10,85.112431100104,85.112431100104,0.028894799994304776,86.8836314000655,[-0.4777777777777778],[0.32592592592592595],[1],[0],[0],[1.7847666000016034],['target'],TK,001,2024-10-10_19h40.06.592,visula search,2024.1.5,None,2024-10-10 19h40.22.567699 +0530,
45,0,45,0,86.93062400002964,,86.8861990000587,10,86.93062400002964,86.93062400002964,0.031551299965940416,89.58232190005947,[-0.24074074074074073],[0.41203703703703703],[1],[0],[0],[2.6647710000397637],['target'],TK,001,2024-10-10_19h40.06.592,visula search,2024.1.5,None,2024-10-10 19h40.22.567699 +0530,
46,0,46,0,89.60660490009468,,89.58511610003188,5,89.60660490009468,89.60660490009468,0.014008800033479929,91.3316525000846,[-0.4212962962962963],[-0.30092592592592593],[1],[0],[0],[1.732785900007002],['target'],TK,001,2024-10-10_19h40.06.592,visula search,2024.1.5,None,2024-10-10 19h40.22.567699 +0530,
47,0,47,0,91.3575647000689,,91.33445280010346,5,91.3575647000689,91.3575647000689,0.01511669997125864,93.04837309999857,[0.45925925925925926],[-0.11574074074074074],[1],[0],[0],[1.6990412999875844],['target'],TK,001,2024-10-10_19h40.06.592,visula search,2024.1.5,None,2024-10-10 19h40.22.567699 +0530,
48,0,48,0,93.07630130008329,,93.05137120001018,5,93.07630130008329,93.07630130008329,0.016586199984885752,95.86342840001453,[-0.3611111111111111],[-0.2657407407407407],[1],[0],[0],[2.7955194999231026],['target'],TK,001,2024-10-10_19h40.06.592,visula search,2024.1.5,None,2024-10-10 19h40.22.567699 +0530,
49,0,49,0,95.89029380003922,,95.86623860010877,5,95.89029380003922,95.89029380003922,0.015266100061126053,97.24648190010339,[-0.4685185185185185],[0.10925925925925926],[1],[0],[0],[1.3651503999717534],['target'],TK,001,2024-10-10_19h40.06.592,visula search,2024.1.5,None,2024-10-10 19h40.22.567699 +0530,
50,0,50,0,97.28866850002669,,97.2493312000297,10,97.28866850002669,97.28866850002669,0.026299600023776293,98.99556170008145,[0.06574074074074074],[-0.40370370370370373],[1],[0],[0],[1.720179400057532],['target'],TK,001,2024-10-10_19h40.06.592,visula search,2024.1.5,None,2024-10-10 19h40.22.567699 +0530,
51,0,51,0,99.02051630010828,,98.99811570008751,5,99.02051630010828,99.02051630010828,0.014356500003486872,100.928679500008,[0.010185185185185186],[0.4601851851851852],[1],[0],[0],[1.916349699953571],['target'],TK,001,2024-10-10_19h40.06.592,visula search,2024.1.5,None,2024-10-10 19h40.22.567699 +0530,
52,0,52,0,100.97281620011199,,100.93206530006137,10,100.97281620011199,100.97281620011199,0.027700899983756244,104.19419300009031,[-0.41759259259259257],[-0.37407407407407406],[1],[0],[0],[3.23479719995521],['target'],TK,001,2024-10-10_19h40.06.592,visula search,2024.1.5,None,2024-10-10 19h40.22.567699 +0530,
53,0,53,0,104.2188755000243,,104.19702310010325,5,104.2188755000243,104.2188755000243,0.014355699997395277,106.06024630006868,[0.29259259259259257],[0.2722222222222222],[1],[0],[0],[1.8491130000911653],['target'],TK,001,2024-10-10_19h40.06.592,visula search,2024.1.5,None,2024-10-10 19h40.22.567699 +0530,
54,0,54,0,106.08521280006971,,106.06314380001277,5,106.08521280006971,106.08521280006971,0.014410999952815473,107.3933701000642,[0.49074074074074076],[0.09351851851851851],[1],[0],[0],[1.3160472000017762],['target'],TK,001,2024-10-10_19h40.06.592,visula search,2024.1.5,None,2024-10-10 19h40.22.567699 +0530,
55,0,55,0,107.41798970010132,,107.39623210008722,5,107.41798970010132,107.41798970010132,0.014045199961401522,110.10865570011083,[-0.45555555555555555],[0.49166666666666664],[1],[0],[0],[2.6986092999577522],['target'],TK,001,2024-10-10_19h40.06.592,visula search,2024.1.5,None,2024-10-10 19h40.22.567699 +0530,
56,0,56,0,110.15016420010943,,110.1114363000961,10,110.15016420010943,110.15016420010943,0.026773600024171174,111.27538870007265,[0.23703703703703705],[0.3888888888888889],[1],[0],[0],[1.1372780000092462],[],TK,001,2024-10-10_19h40.06.592,visula search,2024.1.5,None,2024-10-10 19h40.22.567699 +0530,
57,0,57,0,111.31926270003896,,111.27825450000819,10,111.31926270003896,111.31926270003896,0.027746500098146498,112.87473160005175,[-0.3101851851851852],[-0.044444444444444446],[1],[0],[0],[1.569012299994938],[],TK,001,2024-10-10_19h40.06.592,visula search,2024.1.5,None,2024-10-10 19h40.22.567699 +0530,
58,0,58,0,112.89864340005443,,112.8773816000903,5,112.89864340005443,112.89864340005443,0.013562900014221668,114.22458140004892,[0.4842592592592593],[0.030555555555555555],[1],[0],[0],[1.3337834998965263],['target'],TK,001,2024-10-10_19h40.06.592,visula search,2024.1.5,None,2024-10-10 19h40.22.567699 +0530,
59,0,59,0,114.26887640007772,,114.22831220005173,10,114.26887640007772,114.26887640007772,0.02911789994686842,117.45684140000958,[-0.2675925925925926],[0.3509259259259259],[1],[0],[0],[3.1998829999938607],['target'],TK,001,2024-10-10_19h40.06.592,visula search,2024.1.5,None,2024-10-10 19h40.22.567699 +0530,
60,0,60,0,117.50063540006522,,117.45954569999594,10,117.50063540006522,117.50063540006522,0.028035899973474443,119.02271380007733,[0.08888888888888889],[0.31296296296296294],[1],[0],[0],[1.535377399995923],['target'],TK,001,2024-10-10_19h40.06.592,visula search,2024.1.5,None,2024-10-10 19h40.22.567699 +0530,
61,0,61,0,119.04759600001853,,119.02583870000672,5,119.04759600001853,119.04759600001853,0.014268200029619038,121.03872970002703,[-0.15648148148148147],[0.06759259259259259],[1],[0],[0],[1.9989178999094293],['target'],TK,001,2024-10-10_19h40.06.592,visula search,2024.1.5,None,2024-10-10 19h40.22.567699 +0530,
62,0,62,0,121.06498010002542,,121.0416071000509,5,121.06498010002542,121.06498010002542,0.01440129999537021,122.8722296000924,[0.25462962962962965],[-0.1388888888888889],[1],[0],[0],[1.816504399990663],['target'],TK,001,2024-10-10_19h40.06.592,visula search,2024.1.5,None,2024-10-10 19h40.22.567699 +0530,
63,0,63,0,122.91727700002957,,122.87505140004214,10,122.91727700002957,122.91727700002957,0.029431800008751452,125.9207413000986,[0.45092592592592595],[0.4166666666666667],[1],[0],[0],[3.0164670000085607],['target'],TK,001,2024-10-10_19h40.06.592,visula search,2024.1.5,None,2024-10-10 19h40.22.567699 +0530,
64,0,64,0,125.96142330009025,,125.92336260003503,10,125.96142330009025,125.96142330009025,0.026416399981826544,128.26986180001404,[-0.3787037037037037],[-0.3537037037037037],[1],[0],[0],[2.3203116999939084],['target'],TK,001,2024-10-10_19h40.06.592,visula search,2024.1.5,None,2024-10-10 19h40.22.567699 +0530,
65,0,65,0,128.31269839999732,,128.27281380002387,10,128.31269839999732,128.31269839999732,0.027654999983496964,130.5195934000658,[0.30925925925925923],[0.23981481481481481],[1],[0],[0],[2.219277099939063],['target'],TK,001,2024-10-10_19h40.06.592,visula search,2024.1.5,None,2024-10-10 19h40.22.567699 +0530,
66,0,66,0,130.56120930006728,,130.5221597000491,10,130.56120930006728,130.56120930006728,0.026298800017684698,133.351561000105,[0.08333333333333333],[-0.28888888888888886],[1],[0],[0],[2.8033002000302076],['target'],TK,001,2024-10-10_19h40.06.592,visula search,2024.1.5,None,2024-10-10 19h40.22.567699 +0530,
67,0,67,0,133.37589410005603,,133.3541283000959,5,133.37589410005603,133.37589410005603,0.014036300010047853,134.56775700009894,[0.10648148148148148],[-0.08055555555555556],[1],[0],[0],[1.1998079000040889],['target'],TK,001,2024-10-10_19h40.06.592,visula search,2024.1.5,None,2024-10-10 19h40.22.567699 +0530,
68,0,68,0,134.59337920008693,,134.57088670006488,5,134.59337920008693,134.59337920008693,0.015154400025494397,136.00038100010715,[0.04814814814814815],[-0.05092592592592592],[1],[0],[0],[1.4147434000624344],['target'],TK,001,2024-10-10_19h40.06.592,visula search,2024.1.5,None,2024-10-10 19h40.22.567699 +0530,
69,0,69,0,136.02674860006664,,136.0036362000974,5,136.02674860006664,136.02674860006664,0.016050699981860816,137.3837579000974,[-0.2101851851851852],[0.12222222222222222],[1],[0],[0],[1.3643668999429792],['target'],TK,001,2024-10-10_19h40.06.592,visula search,2024.1.5,None,2024-10-10 19h40.22.567699 +0530,
70,0,70,0,137.42725770000834,,137.3870621001115,10,137.42725770000834,137.42725770000834,0.028549699927680194,138.91622670006473,[-0.21296296296296297],[-0.28425925925925927],[1],[0],[0],[1.5009883999591693],['target'],TK,001,2024-10-10_19h40.06.592,visula search,2024.1.5,None,2024-10-10 19h40.22.567699 +0530,
71,0,71,0,138.9424404000165,,138.91920930007473,5,138.9424404000165,138.9424404000165,0.014762300066649914,141.73214700003155,[-0.48518518518518516],[0.4898148148148148],[1],[0],[0],[2.798401200096123],['target'],TK,001,2024-10-10_19h40.06.592,visula search,2024.1.5,None,2024-10-10 19h40.22.567699 +0530,
72,0,72,0,141.77718370000366,,141.73516770009883,10,141.77718370000366,141.77718370000366,0.028331900015473366,144.01489830005448,[0.37407407407407406],[0.05555555555555555],[1],[0],[0],[2.251713900011964],['target'],TK,001,2024-10-10_19h40.06.592,visula search,2024.1.5,None,2024-10-10 19h40.22.567699 +0530,
73,0,73,0,144.03917850006837,,144.01744389999658,5,144.03917850006837,144.03917850006837,0.013768300064839423,146.0141513000708,[-0.4046296296296296],[0.3648148148148148],[1],[0],[0],[1.9831087000202388],['target'],TK,001,2024-10-10_19h40.06.592,visula search,2024.1.5,None,2024-10-10 19h40.22.567699 +0530,
74,0,74,0,146.0550032000756,,146.01711210003123,10,146.0550032000756,146.0550032000756,0.02659779996611178,151.67951380007435,[-0.22962962962962963],[-0.05462962962962963],[1],[0],[0],[5.636118899914436],['target'],TK,001,2024-10-10_19h40.06.592,visula search,2024.1.5,None,2024-10-10 19h40.22.567699 +0530,
75,0,75,0,151.7031615000451,,151.68203800008632,5,151.7031615000451,151.7031615000451,0.01394780003465712,153.84537180000916,[0.35462962962962963],[-0.19166666666666668],[1],[0],[0],[2.1495222999947146],['target'],TK,001,2024-10-10_19h40.06.592,visula search,2024.1.5,None,2024-10-10 19h40.22.567699 +0530,
76,0,76,0,153.88986950006802,,153.84862870001234,10,153.88986950006802,153.88986950006802,0.029097900027409196,156.5106081000995,[0.075],[0.41944444444444445],[1],[0],[0],[2.6332486999453977],['target'],TK,001,2024-10-10_19h40.06.592,visula search,2024.1.5,None,2024-10-10 19h40.22.567699 +0530,
77,0,77,0,156.53442030004226,,156.51329220004845,5,156.53442030004226,156.53442030004226,0.013793999911285937,158.3766706000315,[-0.062037037037037036],[-0.21666666666666667],[1],[0],[0],[1.8497595000080764],['target'],TK,001,2024-10-10_19h40.06.592,visula search,2024.1.5,None,2024-10-10 19h40.22.567699 +0530,
78,0,78,0,158.40437440003734,,158.37985280004796,5,158.40437440003734,158.40437440003734,0.0168279999634251,159.95980260008946,[0.43148148148148147],[0.46111111111111114],[1],[0],[0],[1.5634541000472382],['target'],TK,001,2024-10-10_19h40.06.592,visula search,2024.1.5,None,2024-10-10 19h40.22.567699 +0530,
79,0,79,0,159.98512270010542,,159.96281040005852,5,159.98512270010542,159.98512270010542,0.014708100003190339,161.30934700008947,[0.45925925925925926],[0.48703703703703705],[1],[0],[0],[1.3320260000182316],['target'],TK,001,2024-10-10_19h40.06.592,visula search,2024.1.5,None,2024-10-10 19h40.22.567699 +0530,
80,0,80,0,161.33612650004216,,161.31250190001447,5,161.33612650004216,161.33612650004216,0.015863400069065392,162.9250457000453,[-0.2],[0.2074074074074074],[1],[0],[0],[1.597031900077127],['target'],TK,001,2024-10-10_19h40.06.592,visula search,2024.1.5,None,2024-10-10 19h40.22.567699 +0530,
81,0,81,0,162.9503414001083,,162.9279168000212,5,162.9503414001083,162.9503414001083,0.01485310005955398,164.874477900099,[-0.49722222222222223],[-0.1712962962962963],[1],[0],[0],[1.931968200020492],['target'],TK,001,2024-10-10_19h40.06.592,visula search,2024.1.5,None,2024-10-10 19h40.22.567699 +0530,
82,0,82,0,164.91789640008938,,164.87740790005773,10,164.91789640008938,164.91789640008938,0.028532200027257204,166.8571409001015,[0.2564814814814815],[0.15462962962962962],[1],[0],[0],[1.9514929000288248],['target'],TK,001,2024-10-10_19h40.06.592,visula search,2024.1.5,None,2024-10-10 19h40.22.567699 +0530,
83,0,83,0,166.88229330000468,,166.85976890008897,5,166.88229330000468,166.88229330000468,0.01439690007828176,167.8903549000388,[0.30833333333333335],[0.044444444444444446],[1],[0],[0],[1.0163645000429824],['target'],TK,001,2024-10-10_19h40.06.592,visula search,2024.1.5,None,2024-10-10 19h40.22.567699 +0530,
84,0,84,0,167.91945860011037,,167.8942976000253,5,167.91945860011037,167.91945860011037,0.01745050004683435,170.97226650000084,[-0.4305555555555556],[0.175],[1],[0],[0],[3.0609534999821335],['target'],TK,001,2024-10-10_19h40.06.592,visula search,2024.1.5,None,2024-10-10 19h40.22.567699 +0530,
85,0,85,0,170.99764080008026,,170.9749618000351,5,170.99764080008026,170.99764080008026,0.015286499983631074,173.45475390006322,[-0.0787037037037037],[-0.35555555555555557],[1],[0],[0],[2.464713300112635],['target'],TK,001,2024-10-10_19h40.06.592,visula search,2024.1.5,None,2024-10-10 19h40.22.567699 +0530,
86,0,86,0,173.4803358000936,,173.4577275000047,5,173.4803358000936,173.4803358000936,0.015069100074470043,175.77034889999777,[-0.31203703703703706],[0.26851851851851855],[1],[0],[0],[2.297840900020674],['target'],TK,001,2024-10-10_19h40.06.592,visula search,2024.1.5,None,2024-10-10 19h40.22.567699 +0530,
87,0,87,0,175.79731000005268,,175.7736479000887,5,175.79731000005268,175.79731000005268,0.01595379994250834,177.9868759000674,[-0.40925925925925927],[-0.475],[1],[0],[0],[2.1976022999733686],['target'],TK,001,2024-10-10_19h40.06.592,visula search,2024.1.5,None,2024-10-10 19h40.22.567699 +0530,
88,0,88,0,178.03429540002253,,177.9907811000012,10,178.03429540002253,178.03429540002253,0.03105760004837066,179.00301280000713,[-0.4148148148148148],[-0.31296296296296294],[1],[0],[0],[0.9815663000335917],['target'],TK,001,2024-10-10_19h40.06.592,visula search,2024.1.5,None,2024-10-10 19h40.22.567699 +0530,
89,0,89,0,179.0464797000168,,179.00576870003715,10,179.0464797000168,179.0464797000168,0.02804390003439039,182.03502160008065,[0.2722222222222222],[-0.4203703703703704],[1],[0],[0],[3.0014355999883264],['target'],TK,001,2024-10-10_19h40.06.592,visula search,2024.1.5,None,2024-10-10 19h40.22.567699 +0530,
90,0,90,0,182.05908890010323,,182.03762640000787,5,182.05908890010323,182.05908890010323,0.01421749999281019,184.40153590007685,[0.2222222222222222],[0.487962962962963],[1],[0],[0],[2.349888800061308],['target'],TK,001,2024-10-10_19h40.06.592,visula search,2024.1.5,None,2024-10-10 19h40.22.567699 +0530,
91,0,91,0,184.44294560002163,,184.40430150006432,10,184.44294560002163,184.44294560002163,0.027245600009337068,185.38450550008565,[0.1287037037037037],[0.42685185185185187],[1],[0],[0],[0.953192500048317],['target'],TK,001,2024-10-10_19h40.06.592,visula search,2024.1.5,None,2024-10-10 19h40.22.567699 +0530,
92,0,92,0,185.42497260007076,,185.38723290001508,10,185.42497260007076,185.42497260007076,0.025992699898779392,187.60060100001283,[0.2740740740740741],[0.04351851851851852],[1],[0],[0],[2.1876128000440076],['target'],TK,001,2024-10-10_19h40.06.592,visula search,2024.1.5,None,2024-10-10 19h40.22.567699 +0530,
93,0,93,0,187.62482810008805,,187.60312970005907,5,187.62482810008805,187.62482810008805,0.014299399917945266,189.31669870007318,[-0.25092592592592594],[0.009259259259259259],[1],[0],[0],[1.6994540999876335],['target'],TK,001,2024-10-10_19h40.06.592,visula search,2024.1.5,None,2024-10-10 19h40.22.567699 +0530,
94,0,94,0,189.3418101000134,,189.31970850005746,5,189.3418101000134,189.3418101000134,0.014276200090534985,190.9826879000757,[-0.24444444444444444],[0.362962962962963],[1],[0],[0],[1.649009000044316],['target'],TK,001,2024-10-10_19h40.06.592,visula search,2024.1.5,None,2024-10-10 19h40.22.567699 +0530,
95,0,95,0,191.0323972000042,,190.98566180001944,10,191.0323972000042,191.0323972000042,0.03419549996033311,194.39831070008222,[-0.21944444444444444],[0.17777777777777778],[1],[0],[0],[3.378735200036317],['target'],TK,001,2024-10-10_19h40.06.592,visula search,2024.1.5,None,2024-10-10 19h40.22.567699 +0530,
96,0,96,0,194.42226550006308,,194.40104660007637,5,194.42226550006308,194.42226550006308,0.013509000069461763,195.59805490006693,[0.1962962962962963],[0.30277777777777776],[1],[0],[0],[1.1837116000242531],['target'],TK,001,2024-10-10_19h40.06.592,visula search,2024.1.5,None,2024-10-10 19h40.22.567699 +0530,
97,0,97,0,195.6412527000066,,195.60109930008184,10,195.6412527000066,195.6412527000066,0.028007499990053475,197.5649988000514,[-0.2490740740740741],[-0.29259259259259257],[1],[0],[0],[1.936257499968633],['target'],TK,001,2024-10-10_19h40.06.592,visula search,2024.1.5,None,2024-10-10 19h40.22.567699 +0530,
98,0,98,0,197.60828050004784,,197.5676075000083,10,197.60828050004784,197.60828050004784,0.028812299948185682,198.94718500005547,[-0.3648148148148148],[0.028703703703703703],[1],[0],[0],[1.3509980998933315],['target'],TK,001,2024-10-10_19h40.06.592,visula search,2024.1.5,None,2024-10-10 19h40.22.567699 +0530,
99,0,99,0,198.97016790008638,,198.94963650009595,5,198.97016790008638,198.97016790008638,0.013190999976359308,201.0131775001064,[0.34814814814814815],[-0.20833333333333334],[1],[0],[0],[2.0504538998939097],['target'],TK,001,2024-10-10_19h40.06.592,visula search,2024.1.5,None,2024-10-10 19h40.22.567699 +0530,
100,0,100,0,201.06012690009084,,201.01664410007652,10,201.06012690009084,201.06012690009084,0.03150149993598461,202.66226010001265,[-0.011111111111111112],[0.18333333333333332],[1],[0],[0],[1.6145286000100896],['target'],TK,001,2024-10-10_19h40.06.592,visula search,2024.1.5,None,2024-10-10 19h40.22.567699 +0530,
101,0,101,0,202.6872193000745,,202.66490380000323,5,202.6872193000745,202.6872193000745,0.01382490003015846,206.47778580000158,[-0.4425925925925926],[0.39444444444444443],[1],[0],[0],[3.7992269000969827],['target'],TK,001,2024-10-10_19h40.06.592,visula search,2024.1.5,None,2024-10-10 19h40.22.567699 +0530,
102,0,102,0,206.50219510006718,,206.4804998000618,5,206.50219510006718,206.50219510006718,0.014022800023667514,207.79417200002354,[-0.3435185185185185],[-0.018518518518518517],[1],[0],[0],[1.2998324000509456],['target'],TK,001,2024-10-10_19h40.06.592,visula search,2024.1.5,None,2024-10-10 19h40.22.567699 +0530,
103,0,103,0,207.8422626000829,,207.79815280006733,10,207.8422626000829,207.8422626000829,0.03085159999318421,210.14389450009912,[0.4777777777777778],[0.49166666666666664],[1],[0],[0],[2.3152764999540523],['target'],TK,001,2024-10-10_19h40.06.592,visula search,2024.1.5,None,2024-10-10 19h40.22.567699 +0530,
104,0,104,0,210.1682060000021,,210.14649290009402,5,210.1682060000021,210.1682060000021,0.01397289999295026,212.0427944000112,[0.040740740740740744],[-0.3731481481481482],[1],[0],[0],[1.8825385000091046],['target'],TK,001,2024-10-10_19h40.06.592,visula search,2024.1.5,None,2024-10-10 19h40.22.567699 +0530,
105,0,105,0,212.07775749999564,,212.04605680005625,5,212.07775749999564,212.07775749999564,0.023439700016751885,213.35903280007187,[-0.2601851851851852],[0.11851851851851852],[1],[0],[0],[1.2897762999637052],['target'],TK,001,2024-10-10_19h40.06.592,visula search,2024.1.5,None,2024-10-10 19h40.22.567699 +0530,
106,0,106,0,213.4001402000431,,213.36186440009624,10,213.4001402000431,213.4001402000431,0.02685819996986538,215.6253778000828,[0.03981481481481482],[-0.262037037037037],[1],[0],[0],[2.2368872000370175],['target'],TK,001,2024-10-10_19h40.06.592,visula search,2024.1.5,None,2024-10-10 19h40.22.567699 +0530,
107,0,107,0,215.65139170002658,,215.628299800097,5,215.65139170002658,215.65139170002658,0.015395700000226498,216.9913146001054,[-0.1685185185185185],[0.37037037037037035],[1],[0],[0],[1.3478484000079334],['target'],TK,001,2024-10-10_19h40.06.592,visula search,2024.1.5,None,2024-10-10 19h40.22.567699 +0530,
108,0,108,0,217.01520550006535,,216.9941893001087,5,217.01520550006535,217.01520550006535,0.01387369993608445,218.4568892000243,[-0.4305555555555556],[-0.14629629629629629],[1],[0],[0],[1.4490654999390244],['target'],TK,001,2024-10-10_19h40.06.592,visula search,2024.1.5,None,2024-10-10 19h40.22.567699 +0530,
109,0,109,0,218.5022308001062,,218.4605114000151,10,218.5022308001062,218.5022308001062,0.03006899997126311,219.95703990000766,[-0.22314814814814815],[0.3907407407407407],[1],[0],[0],[1.466768499929458],['target'],TK,001,2024-10-10_19h40.06.592,visula search,2024.1.5,None,2024-10-10 19h40.22.567699 +0530,
110,0,110,0,219.98172160005197,,219.95975290006027,5,219.98172160005197,219.98172160005197,0.014195800060406327,221.52337070007343,[-0.20185185185185187],[-0.3527777777777778],[1],[0],[0],[1.5496361000696197],['target'],TK,001,2024-10-10_19h40.06.592,visula search,2024.1.5,None,2024-10-10 19h40.22.567699 +0530,
111,0,111,0,221.5485756000271,,221.52606600010768,5,221.5485756000271,221.5485756000271,0.0147921999450773,223.0056079000933,[-0.39166666666666666],[-0.11574074074074074],[1],[0],[0],[1.464919500052929],['target'],TK,001,2024-10-10_19h40.06.592,visula search,2024.1.5,None,2024-10-10 19h40.22.567699 +0530,
112,0,112,0,223.04780240007676,,223.0087620000122,10,223.04780240007676,223.04780240007676,0.026937999995425344,225.17260370007716,[-0.05740740740740741],[-0.000925925925925926],[1],[0],[0],[2.1371765000512823],['target'],TK,001,2024-10-10_19h40.06.592,visula search,2024.1.5,None,2024-10-10 19h40.22.567699 +0530,
113,0,113,0,225.21567310008686,,225.17515420005657,10,225.21567310008686,225.21567310008686,0.02852970000822097,227.93770350003615,[0.11481481481481481],[-0.09166666666666666],[1],[0],[0],[2.734259800054133],['target'],TK,001,2024-10-10_19h40.06.592,visula search,2024.1.5,None,2024-10-10 19h40.22.567699 +0530,
114,0,114,0,227.96343880007043,,227.94032960000914,5,227.96343880007043,227.96343880007043,0.014309499994851649,229.43751920002978,[0.041666666666666664],[-0.337037037037037],[1],[0],[0],[1.483092000009492],['target'],TK,001,2024-10-10_19h40.06.592,visula search,2024.1.5,None,2024-10-10 19h40.22.567699 +0530,
115,0,115,0,229.46512710000388,,229.4408526000334,5,229.46512710000388,229.46512710000388,0.016351599944755435,230.66993110009935,[-0.07962962962962963],[-0.40185185185185185],[1],[0],[0],[1.2129918999271467],['target'],TK,001,2024-10-10_19h40.06.592,visula search,2024.1.5,None,2024-10-10 19h40.22.567699 +0530,
116,0,116,0,230.69681560003664,,230.6729205000447,5,230.69681560003664,230.69681560003664,0.01581780007109046,231.836141900043,[0.0824074074074074],[-0.1425925925925926],[1],[0],[0],[1.147693100036122],['target'],TK,001,2024-10-10_19h40.06.592,visula search,2024.1.5,None,2024-10-10 19h40.22.567699 +0530,
117,0,117,0,231.86329790006857,,231.83935150003526,5,231.86329790006857,231.86329790006857,0.01604259992018342,233.41904770000838,[0.2861111111111111],[-0.13518518518518519],[1],[0],[0],[1.564022000064142],['target'],TK,001,2024-10-10_19h40.06.592,visula search,2024.1.5,None,2024-10-10 19h40.22.567699 +0530,
118,0,118,0,233.44464910007082,,233.4218851000769,5,233.44464910007082,233.44464910007082,0.014628399978391826,235.51820750010666,[-0.1574074074074074],[-0.09814814814814815],[1],[0],[0],[2.081914499984123],['target'],TK,001,2024-10-10_19h40.06.592,visula search,2024.1.5,None,2024-10-10 19h40.22.567699 +0530,
119,0,119,0,235.56100730004255,,235.52105660003144,10,235.56100730004255,235.56100730004255,0.02831480000168085,237.10116170009132,[0.14629629629629629],[0.17592592592592593],[1],[0],[0],[1.5520970999496058],['target'],TK,001,2024-10-10_19h40.06.592,visula search,2024.1.5,None,2024-10-10 19h40.22.567699 +0530,
120,0,120,0,237.12645209999755,,237.1044208999956,5,237.12645209999755,237.12645209999755,0.014545900048688054,238.45087340008467,[-0.2833333333333333],[-0.13055555555555556],[1],[0],[0],[1.3323244999628514],['target'],TK,001,2024-10-10_19h40.06.592,visula search,2024.1.5,None,2024-10-10 19h40.22.567699 +0530,
121,0,121,0,238.49495080008637,,238.4542070000898,10,238.49495080008637,238.49495080008637,0.029000299982726574,240.3002928000642,[0.2759259259259259],[-0.14166666666666666],[1],[0],[0],[1.81759420002345],['target'],TK,001,2024-10-10_19h40.06.592,visula search,2024.1.5,None,2024-10-10 19h40.22.567699 +0530,
122,0,122,0,240.34374390006997,,240.30293950007763,10,240.34374390006997,240.34374390006997,0.029115800047293305,243.4163261000067,[0.48055555555555557],[0.15555555555555556],[1],[0],[0],[3.0844712000107393],['target'],TK,001,2024-10-10_19h40.06.592,visula search,2024.1.5,None,2024-10-10 19h40.22.567699 +0530,
123,0,123,0,243.45851890009362,,243.41914560005534,10,243.45851890009362,243.45851890009362,0.027663199929520488,244.74890670005698,[0.09351851851851851],[0.002777777777777778],[1],[0],[0],[1.3022847999818623],['target'],TK,001,2024-10-10_19h40.06.592,visula search,2024.1.5,None,2024-10-10 19h40.22.567699 +0530,
124,0,124,0,244.7910534000257,,244.75169950001873,10,244.7910534000257,244.7910534000257,0.027583500021137297,246.1154393000761,[-0.23333333333333334],[-0.04537037037037037],[1],[0],[0],[1.3364351000636816],['target'],TK,001,2024-10-10_19h40.06.592,visula search,2024.1.5,None,2024-10-10 19h40.22.567699 +0530,
125,0,125,0,246.14090140000917,,246.1182822000701,5,246.14090140000917,246.14090140000917,0.014505400089547038,247.2642892000731,[-0.19722222222222222],[-0.09074074074074075],[1],[0],[0],[1.131760700023733],['target'],TK,001,2024-10-10_19h40.06.592,visula search,2024.1.5,None,2024-10-10 19h40.22.567699 +0530,
126,0,126,0,247.2898154000286,,247.2672001000028,5,247.2898154000286,247.2898154000286,0.015388699946925044,248.84853110008407,[-0.29259259259259257],[-0.3351851851851852],[1],[0],[0],[1.5662736999802291],['target'],TK,001,2024-10-10_19h40.06.592,visula search,2024.1.5,None,2024-10-10 19h40.22.567699 +0530,
127,0,127,0,248.87432610010728,,248.85155640006997,5,248.87432610010728,248.87432610010728,0.014776699943467975,250.59665970003698,[0.10555555555555556],[0.3814814814814815],[1],[0],[0],[1.7306049999315292],['target'],TK,001,2024-10-10_19h40.06.592,visula search,2024.1.5,None,2024-10-10 19h40.22.567699 +0530,
128,0,128,0,250.63834430009592,,250.5995895001106,10,250.63834430009592,250.63834430009592,0.02768659999128431,252.67979580000974,[0.3685185185185185],[-0.3962962962962963],[1],[0],[0],[2.0527474000118673],['target'],TK,001,2024-10-10_19h40.06.592,visula search,2024.1.5,None,2024-10-10 19h40.22.567699 +0530,
129,0,129,0,252.72366540005896,,252.68247540004086,10,252.72366540005896,252.72366540005896,0.029149399953894317,255.3956164000556,[0.09166666666666666],[-0.4398148148148148],[1],[0],[0],[2.684224999975413],['target'],TK,001,2024-10-10_19h40.06.592,visula search,2024.1.5,None,2024-10-10 19h40.22.567699 +0530,
130,0,130,0,255.42054630001076,,255.3985115000978,5,255.42054630001076,255.42054630001076,0.014414699980989099,256.8616735000396,[0.2064814814814815],[0.4185185185185185],[1],[0],[0],[1.4488772999029607],['target'],TK,001,2024-10-10_19h40.06.592,visula search,2024.1.5,None,2024-10-10 19h40.22.567699 +0530,
131,0,131,0,256.8864403000334,,256.86459470004775,5,256.8864403000334,256.8864403000334,0.014612199971452355,258.96104220009875,[-0.13148148148148148],[-0.4777777777777778],[1],[0],[0],[2.0818115998990834],['target'],TK,001,2024-10-10_19h40.06.592,visula search,2024.1.5,None,2024-10-10 19h40.22.567699 +0530,
132,0,132,0,258.98712150007486,,258.96398860006593,5,258.98712150007486,258.98712150007486,0.015752100036479533,260.4936447000364,[-0.3175925925925926],[0.005555555555555556],[1],[0],[0],[1.514166299952194],['target'],TK,001,2024-10-10_19h40.06.592,visula search,2024.1.5,None,2024-10-10 19h40.22.567699 +0530,
133,0,133,0,260.54054440010805,,260.49718050006777,10,260.54054440010805,260.54054440010805,0.03236710000783205,262.7600792000303,[0.08425925925925926],[0.05092592592592592],[1],[0],[0],[2.2306611000094563],['target'],TK,001,2024-10-10_19h40.06.592,visula search,2024.1.5,None,2024-10-10 19h40.22.567699 +0530,
134,0,134,0,262.80323000007775,,262.7628973000683,10,262.80323000007775,262.80323000007775,0.028994599939323962,264.3257316000527,[0.23425925925925925],[0.4083333333333333],[1],[0],[0],[1.5339762000367045],['target'],TK,001,2024-10-10_19h40.06.592,visula search,2024.1.5,None,2024-10-10 19h40.22.567699 +0530,
135,0,135,0,264.3500511000166,,264.32836500008125,5,264.3500511000166,264.3500511000166,0.014136199955828488,266.2752861001063,[-0.09722222222222222],[-0.11574074074074074],[1],[0],[0],[1.9329526999499649],['target'],TK,001,2024-10-10_19h40.06.592,visula search,2024.1.5,None,2024-10-10 19h40.22.567699 +0530,
136,0,136,0,266.3013008000562,,266.2780941000674,5,266.3013008000562,266.3013008000562,0.015440199989825487,269.35769890004303,[-0.0962962962962963],[0.5],[1],[0],[0],[3.0644430000102147],['target'],TK,001,2024-10-10_19h40.06.592,visula search,2024.1.5,None,2024-10-10 19h40.22.567699 +0530,
137,0,137,0,269.38544590002857,,269.36139289999846,5,269.38544590002857,269.38544590002857,0.01670070004183799,271.30699730000924,[0.16574074074074074],[-0.06759259259259259],[1],[0],[0],[1.9291958999820054],['target'],TK,001,2024-10-10_19h40.06.592,visula search,2024.1.5,None,2024-10-10 19h40.22.567699 +0530,
138,0,138,0,271.34940130007453,,271.30998690007254,10,271.34940130007453,271.34940130007453,0.028352599940262735,274.0895900001051,[0.2962962962962963],[-0.1037037037037037],[1],[0],[0],[2.751552699948661],['target'],TK,001,2024-10-10_19h40.06.592,visula search,2024.1.5,None,2024-10-10 19h40.22.567699 +0530,
139,0,139,0,274.1303209000034,,274.0922217000043,10,274.1303209000034,274.1303209000034,0.02718750003259629,276.1721557000419,[-0.3],[0.49166666666666664],[1],[0],[0],[2.052968999953009],['target'],TK,001,2024-10-10_19h40.06.592,visula search,2024.1.5,None,2024-10-10 19h40.22.567699 +0530,
140,0,140,0,276.19687640003394,,276.1749234000454,5,276.19687640003394,276.19687640003394,0.014267700025811791,277.55485710001085,[-0.32407407407407407],[0.3333333333333333],[1],[0],[0],[1.3658842999720946],['target'],TK,001,2024-10-10_19h40.06.592,visula search,2024.1.5,None,2024-10-10 19h40.22.567699 +0530,
141,0,141,0,277.5810960000381,,277.55796160001773,5,277.5810960000381,277.5810960000381,0.015600099926814437,279.6706538000144,[0.3712962962962963],[0.487962962962963],[1],[0],[0],[2.0973998999688774],['target'],TK,001,2024-10-10_19h40.06.592,visula search,2024.1.5,None,2024-10-10 19h40.22.567699 +0530,
142,0,142,0,279.6946799000725,,279.67342720006127,5,279.6946799000725,279.6946799000725,0.014238800038583577,281.8530567000853,[0.16203703703703703],[-0.3425925925925926],[1],[0],[0],[2.1656159999547526],['target'],TK,001,2024-10-10_19h40.06.592,visula search,2024.1.5,None,2024-10-10 19h40.22.567699 +0530,
143,0,143,0,281.8969710000092,,281.85627220000606,10,281.8969710000092,281.8969710000092,0.029160100035369396,282.88725710008293,[-0.03611111111111111],[-0.375],[1],[0],[0],[1.002444799989462],['target'],TK,001,2024-10-10_19h40.06.592,visula search,2024.1.5,None,2024-10-10 19h40.22.567699 +0530,
144,0,144,0,282.91707300010603,,282.8897643000819,5,282.91707300010603,282.91707300010603,0.017413699999451637,284.81966790009756,[0.38055555555555554],[0.03333333333333333],[1],[0],[0],[1.9125703000463545],['target'],TK,001,2024-10-10_19h40.06.592,visula search,2024.1.5,None,2024-10-10 19h40.22.567699 +0530,
145,0,145,0,284.8634714001091,,284.8231277000159,10,284.8634714001091,284.8634714001091,0.028785099973902106,286.53514240006916,[-0.011111111111111112],[-0.4009259259259259],[1],[0],[0],[1.6835971999680623],['target'],TK,001,2024-10-10_19h40.06.592,visula search,2024.1.5,None,2024-10-10 19h40.22.567699 +0530,
146,0,146,0,286.5618786000414,,286.53794670000207,5,286.5618786000414,286.5618786000414,0.01553930004592985,288.2680811000755,[-0.275],[-0.44166666666666665],[1],[0],[0],[1.7148218000074849],['target'],TK,001,2024-10-10_19h40.06.592,visula search,2024.1.5,None,2024-10-10 19h40.22.567699 +0530,
147,0,147,0,288.3125815000385,,288.2711190000409,10,288.3125815000385,288.3125815000385,0.029773900052532554,290.8671348000644,[0.4305555555555556],[0.3277777777777778],[1],[0],[0],[2.5665033999830484],['target'],TK,001,2024-10-10_19h40.06.592,visula search,2024.1.5,None,2024-10-10 19h40.22.567699 +0530,
148,0,148,0,290.89098010002635,,290.86984320008196,5,290.89098010002635,290.89098010002635,0.013952299952507019,291.91697800008114,[0.13148148148148148],[0.17685185185185184],[1],[0],[0],[1.0334312999621034],['target'],TK,001,2024-10-10_19h40.06.592,visula search,2024.1.5,None,2024-10-10 19h40.22.567699 +0530,
149,0,149,0,291.94465830002446,,291.92030910006724,5,291.94465830002446,291.94465830002446,0.016871399944648147,295.04890900000464,[-0.3287037037037037],[-0.4083333333333333],[1],[0],[0],[3.112218900001608],['target'],TK,001,2024-10-10_19h40.06.592,visula search,2024.1.5,None,2024-10-10 19h40.22.567699 +0530,
150,0,150,0,295.0936783000361,,295.0517977999989,10,295.0936783000361,295.0936783000361,0.028764400049112737,297.06545770005323,[-0.1388888888888889],[0.32222222222222224],[1],[0],[0],[1.9851461999351159],['target'],TK,001,2024-10-10_19h40.06.592,visula search,2024.1.5,None,2024-10-10 19h40.22.567699 +0530,
151,0,151,0,297.1064931000583,,297.0682823000243,10,297.1064931000583,297.1064931000583,0.026949699968099594,299.21463300008327,[0.15648148148148147],[-0.15833333333333333],[1],[0],[0],[2.119676399976015],['target'],TK,001,2024-10-10_19h40.06.592,visula search,2024.1.5,None,2024-10-10 19h40.22.567699 +0530,
152,0,152,0,299.2395273000002,,299.21748030011076,5,299.2395273000002,299.2395273000002,0.014321999973617494,301.3812141000526,[0.20555555555555555],[0.08333333333333333],[1],[0],[0],[2.149648900027387],['target'],TK,001,2024-10-10_19h40.06.592,visula search,2024.1.5,None,2024-10-10 19h40.22.567699 +0530,
153,0,153,0,301.42458370001987,,301.3842107000528,10,301.42458370001987,301.42458370001987,0.02841110003646463,303.08067180006765,[0.2833333333333333],[-0.225],[1],[0],[0],[1.6684021999826655],['target'],TK,001,2024-10-10_19h40.06.592,visula search,2024.1.5,None,2024-10-10 19h40.22.567699 +0530,
154,0,154,0,303.1068597000558,,303.08351570006926,5,303.1068597000558,303.1068597000558,0.015215400024317205,304.7298198000062,[0.11851851851851852],[0.275],[1],[0],[0],[1.6312707000179216],['target'],TK,001,2024-10-10_19h40.06.592,visula search,2024.1.5,None,2024-10-10 19h40.22.567699 +0530,
155,0,155,0,304.77141750010196,,304.7326938000042,10,304.77141750010196,304.77141750010196,0.02652799990028143,306.3621887000045,[-0.3509259259259259],[0.3824074074074074],[1],[0],[0],[1.6033369000069797],['target'],TK,001,2024-10-10_19h40.06.592,visula search,2024.1.5,None,2024-10-10 19h40.22.567699 +0530,
156,0,156,0,306.40685270004906,,306.36529400001746,10,306.40685270004906,306.40685270004906,0.029360400047153234,309.0612946000183,[0.4064814814814815],[0.11481481481481481],[1],[0],[0],[2.6669771999586374],['target'],TK,001,2024-10-10_19h40.06.592,visula search,2024.1.5,None,2024-10-10 19h40.22.567699 +0530,
157,0,157,0,309.0862281000009,,309.0640306000132,5,309.0862281000009,309.0862281000009,0.015003899927251041,310.4453658000566,[-0.062037037037037036],[0.3453703703703704],[1],[0],[0],[1.3663951000198722],['target'],TK,001,2024-10-10_19h40.06.592,visula search,2024.1.5,None,2024-10-10 19h40.22.567699 +0530,
158,0,158,0,310.49229780002497,,310.450416100095,10,310.49229780002497,310.49229780002497,0.0287354999454692,314.19294610002544,[0.26666666666666666],[-0.4722222222222222],[1],[0],[0],[3.71425520000048],['target'],TK,001,2024-10-10_19h40.06.592,visula search,2024.1.5,None,2024-10-10 19h40.22.567699 +0530,
159,0,159,0,314.21809270000085,,314.19567700009793,5,314.21809270000085,314.21809270000085,0.014720399980433285,315.8431909000501,[-0.2722222222222222],[-0.17314814814814813],[1],[0],[0],[1.632969900034368],['target'],TK,001,2024-10-10_19h40.06.592,visula search,2024.1.5,None,2024-10-10 19h40.22.567699 +0530,
160,0,160,0,315.87967950000893,,315.84673710004427,5,315.87967950000893,315.87967950000893,0.02566449996083975,317.25870160001796,[-0.37777777777777777],[0.3055555555555556],[1],[0],[0],[1.3866826000157744],['target'],TK,001,2024-10-10_19h40.06.592,visula search,2024.1.5,None,2024-10-10 19h40.22.567699 +0530,
161,0,161,0,317.30232370004524,,317.26151290000416,10,317.30232370004524,317.30232370004524,0.029257099959068,319.10803800006397,[0.30462962962962964],[0.4787037037037037],[1],[0],[0],[1.8175571999745443],['target'],TK,001,2024-10-10_19h40.06.592,visula search,2024.1.5,None,2024-10-10 19h40.22.567699 +0530,
162,0,162,0,319.13211820006836,,319.11072800005786,5,319.13211820006836,319.13211820006836,0.013937800074927509,321.0577897001058,[0.05740740740740741],[0.4685185185185185],[1],[0],[0],[1.9333364000776783],['target'],TK,001,2024-10-10_19h40.06.592,visula search,2024.1.5,None,2024-10-10 19h40.22.567699 +0530,
163,0,163,0,321.0824338000966,,321.06073020002805,5,321.0824338000966,321.0824338000966,0.014314800035208464,323.52349610009696,[0.33240740740740743],[-0.43796296296296294],[1],[0],[0],[2.4486938000191003],['target'],TK,001,2024-10-10_19h40.06.592,visula search,2024.1.5,None,2024-10-10 19h40.22.567699 +0530,
164,0,164,0,323.5631018000422,,323.52604200004134,10,323.5631018000422,323.5631018000422,0.025543999974615872,325.1897972000297,[-0.2953703703703704],[-0.42777777777777776],[1],[0],[0],[1.638407799997367],['target'],TK,001,2024-10-10_19h40.06.592,visula search,2024.1.5,None,2024-10-10 19h40.22.567699 +0530,
165,0,165,0,325.21578130009584,,325.19258590007666,5,325.21578130009584,325.21578130009584,0.015170600032433867,326.67204299999867,[-0.03796296296296296],[0.17777777777777778],[1],[0],[0],[1.4645010000094771],['target'],TK,001,2024-10-10_19h40.06.592,visula search,2024.1.5,None,2024-10-10 19h40.22.567699 +0530,
166,0,166,0,326.6966005000286,,326.6749787000008,5,326.6966005000286,326.6966005000286,0.013992000021971762,328.0049363001017,[0.1675925925925926],[-0.1962962962962963],[1],[0],[0],[1.316228299983777],['target'],TK,001,2024-10-10_19h40.06.592,visula search,2024.1.5,None,2024-10-10 19h40.22.567699 +0530,
167,0,167,0,328.0495349999983,,328.0080690000905,10,328.0495349999983,328.0495349999983,0.02935349999461323,329.4049977000104,[-0.11851851851851852],[-0.3287037037037037],[1],[0],[0],[1.3678601999999955],['target'],TK,001,2024-10-10_19h40.06.592,visula search,2024.1.5,None,2024-10-10 19h40.22.567699 +0530,
168,0,168,0,329.44787720008753,,329.40769380005077,10,329.44787720008753,329.44787720008753,0.028036899981088936,332.3873157000635,[0.04537037037037037],[0.2324074074074074],[1],[0],[0],[2.951830899924971],['target'],TK,001,2024-10-10_19h40.06.592,visula search,2024.1.5,None,2024-10-10 19h40.22.567699 +0530,
169,0,169,0,332.42815880000126,,332.3900462000165,10,332.42815880000126,332.42815880000126,0.02550600003451109,335.38653960009106,[0.000925925925925926],[0.02962962962962963],[1],[0],[0],[2.971197000006214],['target'],TK,001,2024-10-10_19h40.06.592,visula search,2024.1.5,None,2024-10-10 19h40.22.567699 +0530,
170,0,170,0,335.4300037000794,,335.38917710003443,10,335.4300037000794,335.4300037000794,0.028558199992403388,337.7533234000439,[0.45925925925925926],[0.08888888888888889],[1],[0],[0],[2.335689500090666],['target'],TK,001,2024-10-10_19h40.06.592,visula search,2024.1.5,None,2024-10-10 19h40.22.567699 +0530,
171,0,171,0,337.7932128000539,,337.7559367000358,10,337.7932128000539,337.7932128000539,0.026075699948705733,339.8179798000492,[0.43425925925925923],[-0.28703703703703703],[1],[0],[0],[2.036199099966325],['target'],TK,001,2024-10-10_19h40.06.592,visula search,2024.1.5,None,2024-10-10 19h40.22.567699 +0530,
172,0,172,0,339.8433453000616,,339.8208385000471,5,339.8433453000616,339.8433453000616,0.014620999922044575,342.2339261000743,[0.025],[-0.34814814814814815],[1],[0],[0],[2.3990133999614045],['target'],TK,001,2024-10-10_19h40.06.592,visula search,2024.1.5,None,2024-10-10 19h40.22.567699 +0530,
173,0,173,0,342.2770382000599,,342.2369543000823,10,342.2770382000599,342.2770382000599,0.028308300068601966,344.36662179999985,[-0.11388888888888889],[0.4722222222222222],[1],[0],[0],[2.1017864000750706],['target'],TK,001,2024-10-10_19h40.06.592,visula search,2024.1.5,None,2024-10-10 19h40.22.567699 +0530,
174,0,174,0,344.40753520000726,,344.36932810000144,10,344.40753520000726,344.40753520000726,0.02594740001950413,346.3326832000166,[-0.31296296296296294],[-0.29907407407407405],[1],[0],[0],[1.937698099995032],['target'],TK,001,2024-10-10_19h40.06.592,visula search,2024.1.5,None,2024-10-10 19h40.22.567699 +0530,
175,0,175,0,346.3754520000657,,346.3353868999984,10,346.3754520000657,346.3754520000657,0.026979000074788928,347.7325213000877,[-0.22592592592592592],[0.049074074074074076],[1],[0],[0],[1.370439099962823],['target'],TK,001,2024-10-10_19h40.06.592,visula search,2024.1.5,None,2024-10-10 19h40.22.567699 +0530,
176,0,176,0,347.75671960006,,347.7353726000292,5,347.75671960006,347.75671960006,0.01370769995264709,349.2314696999965,[-0.03425925925925926],[-0.046296296296296294],[1],[0],[0],[1.4826090999413282],['target'],TK,001,2024-10-10_19h40.06.592,visula search,2024.1.5,None,2024-10-10 19h40.22.567699 +0530,
177,0,177,0,349.2761984000681,,349.2347944000503,10,349.2761984000681,349.2761984000681,0.02931970008648932,350.7647120000329,[-0.3712962962962963],[0.2796296296296296],[1],[0],[0],[1.5010499000782147],['target'],TK,001,2024-10-10_19h40.06.592,visula search,2024.1.5,None,2024-10-10 19h40.22.567699 +0530,
178,0,178,0,350.7884051000001,,350.76727940002456,5,350.7884051000001,350.7884051000001,0.013439000002108514,352.4803637000732,[0.07037037037037037],[0.17222222222222222],[1],[0],[0],[1.6998493999708444],['target'],TK,001,2024-10-10_19h40.06.592,visula search,2024.1.5,None,2024-10-10 19h40.22.567699 +0530,
179,0,179,0,352.5060966000892,,352.48342870001215,5,352.5060966000892,352.5060966000892,0.014960600063204765,354.4968231000239,[0.42962962962962964],[0.028703703703703703],[1],[0],[0],[1.998721499927342],['target'],TK,001,2024-10-10_19h40.06.592,visula search,2024.1.5,None,2024-10-10 19h40.22.567699 +0530,
180,0,180,0,354.5420529000694,,354.4998099000659,10,354.5420529000694,354.5420529000694,0.029007799923419952,357.5959195001051,[0.4962962962962963],[-0.30925925925925923],[1],[0],[0],[3.067415500059724],['target'],TK,001,2024-10-10_19h40.06.592,visula search,2024.1.5,None,2024-10-10 19h40.22.567699 +0530,
181,0,181,0,357.62195080006495,,357.59869910008274,5,357.62195080006495,357.62195080006495,0.014966199989430606,359.47850379999727,[-0.1962962962962963],[-0.1287037037037037],[1],[0],[0],[1.864978599944152],['target'],TK,001,2024-10-10_19h40.06.592,visula search,2024.1.5,None,2024-10-10 19h40.22.567699 +0530,
182,0,182,0,359.5363872000016,,359.48323550005443,10,359.5363872000016,359.5363872000016,0.040214500040747225,361.0448032000568,[0.18981481481481483],[0.18518518518518517],[1],[0],[0],[1.521938299993053],['target'],TK,001,2024-10-10_19h40.06.592,visula search,2024.1.5,None,2024-10-10 19h40.22.567699 +0530,
183,0,183,0,361.0697633000091,,361.04733460000716,5,361.0697633000091,361.0697633000091,0.014133700053207576,362.59451310010627,[-0.01574074074074074],[-0.1962962962962963],[1],[0],[0],[1.5332120000384748],['target'],TK,001,2024-10-10_19h40.06.592,visula search,2024.1.5,None,2024-10-10 19h40.22.567699 +0530,
184,0,184,0,362.64037760009523,,362.5978584000841,10,362.64037760009523,362.64037760009523,0.029299799934960902,363.8266906000208,[-0.1638888888888889],[-0.25092592592592594],[1],[0],[0],[1.1998522999929264],['target'],TK,001,2024-10-10_19h40.06.592,visula search,2024.1.5,None,2024-10-10 19h40.22.567699 +0530,
185,0,185,0,363.8716817999957,,363.82990700006485,10,363.8716817999957,363.8716817999957,0.028948100050911307,373.0742464000359,[0.48055555555555557],[0.5],[1],[0],[0],[9.215635900036432],['target'],TK,001,2024-10-10_19h40.06.592,visula search,2024.1.5,None,2024-10-10 19h40.22.567699 +0530,
186,0,186,0,373.11448630003724,,373.0768728000112,10,373.11448630003724,373.11448630003724,0.02593130001332611,376.77337040007114,[-0.36018518518518516],[0.18611111111111112],[1],[0],[0],[3.6707727999892086],['target'],TK,001,2024-10-10_19h40.06.592,visula search,2024.1.5,None,2024-10-10 19h40.22.567699 +0530,
187,0,187,0,376.81387320009526,,376.77590640005656,10,376.81387320009526,376.81387320009526,0.025949300033971667,378.13949790003244,[-0.11666666666666667],[0.2462962962962963],[1],[0],[0],[1.337847400107421],['target'],TK,001,2024-10-10_19h40.06.592,visula search,2024.1.5,None,2024-10-10 19h40.22.567699 +0530,
188,0,188,0,378.16317830001935,,378.141998300096,5,378.16317830001935,378.16317830001935,0.013609700021333992,380.188518900075,[0.2564814814814815],[0.4564814814814815],[1],[0],[0],[2.0330879000248387],['target'],TK,001,2024-10-10_19h40.06.592,visula search,2024.1.5,None,2024-10-10 19h40.22.567699 +0530,
189,0,189,0,380.21320740005467,,380.1914013000205,5,380.21320740005467,380.21320740005467,0.01450060005299747,382.6377645001048,[0.25833333333333336],[-0.032407407407407406],[1],[0],[0],[2.4321080999216065],['target'],TK,001,2024-10-10_19h40.06.592,visula search,2024.1.5,None,2024-10-10 19h40.22.567699 +0530,
190,0,190,0,382.6810603000922,,382.64060130005237,10,382.6810603000922,382.6810603000922,0.028512899996712804,386.918768200092,[0.30833333333333335],[-0.4648148148148148],[1],[0],[0],[4.249920599977486],['target'],TK,001,2024-10-10_19h40.06.592,visula search,2024.1.5,None,2024-10-10 19h40.22.567699 +0530,
191,0,191,0,386.94351530005224,,386.9213571000146,5,386.94351530005224,386.94351530005224,0.01442060002591461,388.3521191000473,[-0.3351851851851852],[-0.09444444444444444],[1],[0],[0],[1.4165028999559581],['target'],TK,001,2024-10-10_19h40.06.592,visula search,2024.1.5,None,2024-10-10 19h40.22.567699 +0530,
192,0,192,0,388.3762678001076,,388.35482410003897,5,388.3762678001076,388.3762678001076,0.014111800002865493,390.0018520000158,[-0.2712962962962963],[-0.3138888888888889],[1],[0],[0],[1.633062700042501],['target'],TK,001,2024-10-10_19h40.06.592,visula search,2024.1.5,None,2024-10-10 19h40.22.567699 +0530,
193,0,193,0,390.0295887000393,,390.0057101000566,5,390.0295887000393,390.0295887000393,0.01694050000514835,393.9996026000008,[0.32685185185185184],[0.41574074074074074],[1],[0],[0],[3.977459399960935],['target'],TK,001,2024-10-10_19h40.06.592,visula search,2024.1.5,None,2024-10-10 19h40.22.567699 +0530,
194,0,194,0,394.02519440010656,,394.0027638000902,5,394.02519440010656,394.02519440010656,0.015302999992854893,398.33196460001636,[-0.44814814814814813],[0.412962962962963],[1],[0],[0],[4.314176599960774],['target'],TK,001,2024-10-10_19h40.06.592,visula search,2024.1.5,None,2024-10-10 19h40.22.567699 +0530,
195,0,195,0,398.3624759000959,,398.33667420002166,5,398.3624759000959,398.3624759000959,0.01832129992544651,402.06361940002535,[-0.12314814814814815],[-0.05462962962962963],[1],[0],[0],[3.7090499999467283],['target'],TK,001,2024-10-10_19h40.06.592,visula search,2024.1.5,None,2024-10-10 19h40.22.567699 +0530,
196,0,196,0,402.0910831000656,,402.06639960000757,5,402.0910831000656,402.0910831000656,0.01599949994124472,404.01327280001715,[0.1925925925925926],[0.24537037037037038],[1],[0],[0],[1.9314361000433564],['target'],TK,001,2024-10-10_19h40.06.592,visula search,2024.1.5,None,2024-10-10 19h40.22.567699 +0530,
197,0,197,0,404.0552262000274,,404.0159150999971,10,404.0552262000274,404.0552262000274,0.02657580003142357,410.3450827000197,[-0.012037037037037037],[-0.42407407407407405],[1],[0],[0],[6.302795100025833],['target'],TK,001,2024-10-10_19h40.06.592,visula search,2024.1.5,None,2024-10-10 19h40.22.567699 +0530,
198,0,198,0,410.3890722000506,,410.3478118000785,10,410.3890722000506,410.3890722000506,0.02753720001783222,412.67806649999693,[0.487962962962963],[0.19722222222222222],[1],[0],[0],[2.3029608000069857],['target'],TK,001,2024-10-10_19h40.06.592,visula search,2024.1.5,None,2024-10-10 19h40.22.567699 +0530,
199,0,199,0,412.72460820002016,,412.6812906000996,10,412.72460820002016,412.72460820002016,0.029539400013163686,419.40906330000143,[0.1935185185185185],[0.175],[1],[0],[0],[6.698658199980855],['target'],TK,001,2024-10-10_19h40.06.592,visula search,2024.1.5,None,2024-10-10 19h40.22.567699 +0530,
