trials.thisRepN,trials.thisTrialN,trials.thisN,trials.thisIndex,thisRow.t,notes,trial.started,num_distr,fixation.started,target.started,mouse.started,trial.stopped,mouse.x,mouse.y,mouse.leftButton,mouse.midButton,mouse.rightButton,mouse.time,mouse.clicked_name,participant,session,date,expName,psychopyVersion,frameRate,expStart,
0,0,0,0,0.04541440005414188,,0.004185000085271895,10,0.04541440005414188,0.04541440005414188,0.033354499959386885,1.6649301000870764,[0.06944444444444445],[0.16574074074074074],[1],[0],[0],[1.6309959000209346],['target'],TS,001,2024-10-10_20h10.48.730,visula search,2024.1.5,None,2024-10-10 20h12.40.319911 +0530,
1,0,1,0,1.6905661000637338,,1.6683963000541553,5,1.6905661000637338,1.6905661000637338,0.014397899969480932,3.014151900075376,[0.14907407407407408],[-0.03518518518518519],[1],[0],[0],[1.3315016000997275],['target'],TS,001,2024-10-10_20h10.48.730,visula search,2024.1.5,None,2024-10-10 20h12.40.319911 +0530,
2,0,2,0,3.042128000059165,,3.0178582000080496,5,3.042128000059165,3.042128000059165,0.01716130005661398,4.646420500008389,[0.27870370370370373],[0.08333333333333333],[1],[0],[0],[1.6119322000304237],['target'],TS,001,2024-10-10_20h10.48.730,visula search,2024.1.5,None,2024-10-10 20h12.40.319911 +0530,
3,0,3,0,4.671191000030376,,4.649440300068818,5,4.671191000030376,4.671191000030376,0.015131100080907345,6.246550600044429,[-0.16203703703703703],[0.26851851851851855],[1],[0],[0],[1.5822457000613213],['target'],TS,001,2024-10-10_20h10.48.730,visula search,2024.1.5,None,2024-10-10 20h12.40.319911 +0530,
4,0,4,0,6.2709596999920905,,6.2494493999984115,5,6.2709596999920905,6.2709596999920905,0.014407399925403297,7.812632400076836,[0.31851851851851853],[-0.33611111111111114],[1],[0],[0],[1.549081200035289],['target'],TS,001,2024-10-10_20h10.48.730,visula search,2024.1.5,None,2024-10-10 20h12.40.319911 +0530,
5,0,5,0,7.840673600090668,,7.815698700025678,5,7.840673600090668,7.840673600090668,0.017584000015631318,9.695708299987018,[0.35555555555555557],[0.42407407407407405],[1],[0],[0],[1.8629133000504225],['target'],TS,001,2024-10-10_20h10.48.730,visula search,2024.1.5,None,2024-10-10 20h12.40.319911 +0530,
6,0,6,0,9.73960700002499,,9.699302399996668,10,9.73960700002499,9.73960700002499,0.02958189998753369,11.662106000003405,[0.3148148148148148],[-0.22037037037037038],[1],[0],[0],[1.9335791999474168],['target'],TS,001,2024-10-10_20h10.48.730,visula search,2024.1.5,None,2024-10-10 20h12.40.319911 +0530,
7,0,7,0,11.705102500040084,,11.665005500079133,10,11.705102500040084,11.705102500040084,0.02841859997715801,15.26162420003675,[-0.032407407407407406],[0.5],[1],[0],[0],[3.568326999899],['target'],TS,001,2024-10-10_20h10.48.730,visula search,2024.1.5,None,2024-10-10 20h12.40.319911 +0530,
8,0,8,0,15.285866499994881,,15.264373900019564,5,15.285866499994881,15.285866499994881,0.014018699992448092,17.81075589999091,[0.07962962962962963],[0.06388888888888888],[1],[0],[0],[2.5325557999312878],['target'],TS,001,2024-10-10_20h10.48.730,visula search,2024.1.5,None,2024-10-10 20h12.40.319911 +0530,
9,0,9,0,17.836250900058076,,17.814195499988273,5,17.836250900058076,17.836250900058076,0.014917999971657991,19.225820600055158,[-0.014814814814814815],[-0.07777777777777778],[1],[0],[0],[1.3971161000663415],['target'],TS,001,2024-10-10_20h10.48.730,visula search,2024.1.5,None,2024-10-10 20h12.40.319911 +0530,
10,0,10,0,19.267960600089282,,19.229010300012305,10,19.267960600089282,19.267960600089282,0.028196900035254657,20.525891500059515,[-0.18703703703703703],[0.10462962962962963],[1],[0],[0],[1.2689947000471875],['target'],TS,001,2024-10-10_20h10.48.730,visula search,2024.1.5,None,2024-10-10 20h12.40.319911 +0530,
11,0,11,0,20.565749400062487,,20.528435000102036,10,20.565749400062487,20.565749400062487,0.026293399976566434,23.80779790005181,[-0.019444444444444445],[0.04351851851851852],[1],[0],[0],[3.253330900100991],['target'],TS,001,2024-10-10_20h10.48.730,visula search,2024.1.5,None,2024-10-10 20h12.40.319911 +0530,
12,0,12,0,23.848454300081357,,23.81048230000306,10,23.848454300081357,23.848454300081357,0.026643999968655407,25.14081630005967,[0.1287037037037037],[0.33055555555555555],[1],[0],[0],[1.3039048000937328],['target'],TS,001,2024-10-10_20h10.48.730,visula search,2024.1.5,None,2024-10-10 20h12.40.319911 +0530,
13,0,13,0,25.18130610010121,,25.143373600090854,10,25.18130610010121,25.18130610010121,0.02608239999972284,27.423738699988462,[0.30277777777777776],[0.001851851851851852],[1],[0],[0],[2.2545121000148356],['target'],TS,001,2024-10-10_20h10.48.730,visula search,2024.1.5,None,2024-10-10 20h12.40.319911 +0530,
14,0,14,0,27.464104100014083,,27.42628820007667,10,27.464104100014083,27.464104100014083,0.025929099996574223,29.289475099998526,[-0.1962962962962963],[0.3416666666666667],[1],[0],[0],[1.837526399991475],['target'],TS,001,2024-10-10_20h10.48.730,visula search,2024.1.5,None,2024-10-10 20h12.40.319911 +0530,
15,0,15,0,29.31303449999541,,29.29204050009139,5,29.31303449999541,29.31303449999541,0.013673400040715933,30.638985100085847,[-0.08611111111111111],[-0.1527777777777778],[1],[0],[0],[1.3334621998947114],['target'],TS,001,2024-10-10_20h10.48.730,visula search,2024.1.5,None,2024-10-10 20h12.40.319911 +0530,
16,0,16,0,30.66522540000733,,30.641773300012574,5,30.66522540000733,30.66522540000733,0.015157500049099326,32.30509740009438,[0.37592592592592594],[-0.2101851851851852],[1],[0],[0],[1.6484277000417933],['target'],TS,001,2024-10-10_20h10.48.730,visula search,2024.1.5,None,2024-10-10 20h12.40.319911 +0530,
17,0,17,0,32.3496032000985,,32.3080621000845,10,32.3496032000985,32.3496032000985,0.03020389995072037,34.5210161000723,[0.43425925925925923],[-0.4425925925925926],[1],[0],[0],[2.1830162999685854],[],TS,001,2024-10-10_20h10.48.730,visula search,2024.1.5,None,2024-10-10 20h12.40.319911 +0530,
18,0,18,0,34.547501099994406,,34.52401400008239,5,34.547501099994406,34.547501099994406,0.01579130010213703,36.98688320000656,[-0.22962962962962963],[0.1574074074074074],[1],[0],[0],[2.447450799983926],['target'],TS,001,2024-10-10_20h10.48.730,visula search,2024.1.5,None,2024-10-10 20h12.40.319911 +0530,
19,0,19,0,37.02759640000295,,36.98963790002745,10,37.02759640000295,37.02759640000295,0.026746399933472276,38.58639840001706,[0.2638888888888889],[0.4425925925925926],[1],[0],[0],[1.5702899999450892],['target'],TS,001,2024-10-10_20h10.48.730,visula search,2024.1.5,None,2024-10-10 20h12.40.319911 +0530,
20,0,20,0,38.61056080006529,,38.58919060009066,5,38.61056080006529,38.61056080006529,0.0142236000392586,40.71898600005079,[0.4703703703703704],[-0.4740740740740741],[1],[0],[0],[2.115807699970901],['target'],TS,001,2024-10-10_20h10.48.730,visula search,2024.1.5,None,2024-10-10 20h12.40.319911 +0530,
21,0,21,0,40.761395600042306,,40.72183280007448,10,40.761395600042306,40.761395600042306,0.028078499948605895,43.168280499987304,[-0.13055555555555556],[-0.2962962962962963],[1],[0],[0],[2.4185614000307396],['target'],TS,001,2024-10-10_20h10.48.730,visula search,2024.1.5,None,2024-10-10 20h12.40.319911 +0530,
22,0,22,0,43.19185679999646,,43.17084810009692,5,43.19185679999646,43.19185679999646,0.013698599999770522,44.60118120000698,[-0.16944444444444445],[0.1037037037037037],[1],[0],[0],[1.4167785999597982],[],TS,001,2024-10-10_20h10.48.730,visula search,2024.1.5,None,2024-10-10 20h12.40.319911 +0530,
23,0,23,0,44.62714500003494,,44.604444800061174,5,44.62714500003494,44.62714500003494,0.015673400019295514,45.88416290003806,[0.425],[-0.16203703703703703],[1],[0],[0],[1.2644147999817505],['target'],TS,001,2024-10-10_20h10.48.730,visula search,2024.1.5,None,2024-10-10 20h12.40.319911 +0530,
24,0,24,0,45.910008200095035,,45.887545600067824,5,45.910008200095035,45.910008200095035,0.015719600021839142,47.43349580001086,[-0.32222222222222224],[0.08148148148148149],[1],[0],[0],[1.5308604999445379],['target'],TS,001,2024-10-10_20h10.48.730,visula search,2024.1.5,None,2024-10-10 20h12.40.319911 +0530,
25,0,25,0,47.47658980009146,,47.43691960000433,10,47.47658980009146,47.47658980009146,0.02885120001155883,49.06624700000975,[-0.30648148148148147],[-0.4212962962962963],[1],[0],[0],[1.600889699999243],['target'],TS,001,2024-10-10_20h10.48.730,visula search,2024.1.5,None,2024-10-10 20h12.40.319911 +0530,
26,0,26,0,49.09265130001586,,49.06948070006911,5,49.09265130001586,49.09265130001586,0.01583550008945167,51.4492180000525,[-0.1111111111111111],[-0.3055555555555556],[1],[0],[0],[2.3642803999828175],['target'],TS,001,2024-10-10_20h10.48.730,visula search,2024.1.5,None,2024-10-10 20h12.40.319911 +0530,
27,0,27,0,51.49310280010104,,51.45210150000639,10,51.49310280010104,51.49310280010104,0.029672999982722104,53.94841890002135,[-0.4398148148148148],[0.4935185185185185],[1],[0],[0],[2.4668221999891102],[],TS,001,2024-10-10_20h10.48.730,visula search,2024.1.5,None,2024-10-10 20h12.40.319911 +0530,
28,0,28,0,53.972595300059766,,53.95107040007133,5,53.972595300059766,53.972595300059766,0.01407100004144013,55.597789000021294,[0.24351851851851852],[-0.2361111111111111],[1],[0],[0],[1.6328680000733584],['target'],TS,001,2024-10-10_20h10.48.730,visula search,2024.1.5,None,2024-10-10 20h12.40.319911 +0530,
29,0,29,0,55.62406810000539,,55.600657700095326,5,55.62406810000539,55.62406810000539,0.015822699991986156,56.99690500006545,[-0.42777777777777776],[-0.2638888888888889],[1],[0],[0],[1.3807352000148967],['target'],TS,001,2024-10-10_20h10.48.730,visula search,2024.1.5,None,2024-10-10 20h12.40.319911 +0530,
30,0,30,0,57.03989670006558,,56.99982430005912,10,57.03989670006558,57.03989670006558,0.028842699946835637,59.42933980002999,[0.49444444444444446],[0.05277777777777778],[1],[0],[0],[2.401020299992524],['target'],TS,001,2024-10-10_20h10.48.730,visula search,2024.1.5,None,2024-10-10 20h12.40.319911 +0530,
31,0,31,0,59.46996980009135,,59.43198140000459,10,59.46996980009135,59.46996980009135,0.026875399984419346,60.79577640001662,[0.037037037037037035],[0.23055555555555557],[1],[0],[0],[1.3371518000494689],['target'],TS,001,2024-10-10_20h10.48.730,visula search,2024.1.5,None,2024-10-10 20h12.40.319911 +0530,
32,0,32,0,60.81913140008692,,60.79844340006821,5,60.81913140008692,60.81913140008692,0.013575499993748963,61.6954177999869,[-0.08425925925925926],[0.09351851851851851],[1],[0],[0],[0.8836275000358],['target'],TS,001,2024-10-10_20h10.48.730,visula search,2024.1.5,None,2024-10-10 20h12.40.319911 +0530,
33,0,33,0,61.739654700038955,,61.698810500092804,10,61.739654700038955,61.739654700038955,0.02975790004711598,63.09503870003391,[-0.3037037037037037],[-0.32314814814814813],[1],[0],[0],[1.3671487000538036],['target'],TS,001,2024-10-10_20h10.48.730,visula search,2024.1.5,None,2024-10-10 20h12.40.319911 +0530,
34,0,34,0,63.13757170003373,,63.0976934999926,10,63.13757170003373,63.13757170003373,0.02836220001336187,65.14471330004744,[0.07777777777777778],[0.10648148148148148],[1],[0],[0],[2.018917699926533],['target'],TS,001,2024-10-10_20h10.48.730,visula search,2024.1.5,None,2024-10-10 20h12.40.319911 +0530,
35,0,35,0,65.1878449000651,,65.14733840001281,10,65.1878449000651,65.1878449000651,0.02891220001038164,66.51045370008796,[0.20092592592592592],[0.33611111111111114],[1],[0],[0],[1.3344469000585377],['target'],TS,001,2024-10-10_20h10.48.730,visula search,2024.1.5,None,2024-10-10 20h12.40.319911 +0530,
36,0,36,0,66.53569610009436,,66.51339710003231,5,66.53569610009436,66.53569610009436,0.01488999999128282,68.1439507000614,[-0.30833333333333335],[-0.037037037037037035],[1],[0],[0],[1.6157256999285892],['target'],TS,001,2024-10-10_20h10.48.730,visula search,2024.1.5,None,2024-10-10 20h12.40.319911 +0530,
37,0,37,0,68.18570130004082,,68.14694110001437,10,68.18570130004082,68.18570130004082,0.027975299977697432,69.159489300102,[-0.15555555555555556],[-0.21944444444444444],[1],[0],[0],[0.9848605000879616],['target'],TS,001,2024-10-10_20h10.48.730,visula search,2024.1.5,None,2024-10-10 20h12.40.319911 +0530,
38,0,38,0,69.20318150008097,,69.16254990000743,10,69.20318150008097,69.20318150008097,0.02973890001885593,70.24299570010044,[0.020370370370370372],[-0.1175925925925926],[1],[0],[0],[1.0509759999113157],['target'],TS,001,2024-10-10_20h10.48.730,visula search,2024.1.5,None,2024-10-10 20h12.40.319911 +0530,
39,0,39,0,70.28499640000518,,70.24554650008213,10,70.28499640000518,70.28499640000518,0.028026500018313527,72.34237239998765,[0.1787037037037037],[-0.3],[1],[0],[0],[2.068993099965155],['target'],TS,001,2024-10-10_20h10.48.730,visula search,2024.1.5,None,2024-10-10 20h12.40.319911 +0530,
40,0,40,0,72.36764370009769,,72.34520920005161,5,72.36764370009769,72.36764370009769,0.01511690008919686,73.49159790005069,[-0.32222222222222224],[-0.024074074074074074],[1],[0],[0],[1.1314542000181973],['target'],TS,001,2024-10-10_20h10.48.730,visula search,2024.1.5,None,2024-10-10 20h12.40.319911 +0530,
41,0,41,0,73.53545600001235,,73.49537500005681,10,73.53545600001235,73.53545600001235,0.029567399993538857,77.54092860000674,[0.13240740740740742],[-0.4638888888888889],[1],[0],[0],[4.01636020001024],['target'],TS,001,2024-10-10_20h10.48.730,visula search,2024.1.5,None,2024-10-10 20h12.40.319911 +0530,
42,0,42,0,77.56587400007993,,77.54349850001745,5,77.56587400007993,77.56587400007993,0.014724600012414157,78.64035760005936,[-0.4537037037037037],[-0.4546296296296296],[1],[0],[0],[1.0823347000405192],['target'],TS,001,2024-10-10_20h10.48.730,visula search,2024.1.5,None,2024-10-10 20h12.40.319911 +0530,
43,0,43,0,78.66647430008743,,78.64329190005083,5,78.66647430008743,78.66647430008743,0.015395499998703599,80.22274530003779,[-0.05185185185185185],[0.4648148148148148],[1],[0],[0],[1.5642718999879435],['target'],TS,001,2024-10-10_20h10.48.730,visula search,2024.1.5,None,2024-10-10 20h12.40.319911 +0530,
44,0,44,0,80.2494606000837,,80.22594949998893,5,80.2494606000837,80.2494606000837,0.015549800009466708,81.88867970008869,[-0.1962962962962963],[-0.3814814814814815],[1],[0],[0],[1.64751229993999],['target'],TS,001,2024-10-10_20h10.48.730,visula search,2024.1.5,None,2024-10-10 20h12.40.319911 +0530,
45,0,45,0,81.93377630005125,,81.89198190008756,10,81.93377630005125,81.93377630005125,0.030344000086188316,83.17222170007881,[0.08148148148148149],[-0.23333333333333334],[1],[0],[0],[1.2501562000252306],['target'],TS,001,2024-10-10_20h10.48.730,visula search,2024.1.5,None,2024-10-10 20h12.40.319911 +0530,
46,0,46,0,83.19701420003548,,83.17472170002293,5,83.19701420003548,83.19701420003548,0.014684199937619269,84.6719684000127,[-0.07685185185185185],[0.09166666666666666],[1],[0],[0],[1.482741400017403],['target'],TS,001,2024-10-10_20h10.48.730,visula search,2024.1.5,None,2024-10-10 20h12.40.319911 +0530,
47,0,47,0,84.69625680008903,,84.67465100006666,5,84.69625680008903,84.69625680008903,0.01421460008714348,86.8373719000956,[0.4527777777777778],[-0.44907407407407407],[1],[0],[0],[2.1487783000338823],['target'],TS,001,2024-10-10_20h10.48.730,visula search,2024.1.5,None,2024-10-10 20h12.40.319911 +0530,
48,0,48,0,86.86499220004771,,86.84106120001525,5,86.86499220004771,86.86499220004771,0.016898800036869943,88.62020020000637,[0.25277777777777777],[0.1962962962962963],[1],[0],[0],[1.76274709997233],['target'],TS,001,2024-10-10_20h10.48.730,visula search,2024.1.5,None,2024-10-10 20h12.40.319911 +0530,
49,0,49,0,88.66567060002126,,88.62391790002584,10,88.66567060002126,88.66567060002126,0.03118769999127835,91.88560220005456,[0.15648148148148147],[-0.39814814814814814],[1],[0],[0],[3.230974599951878],['target'],TS,001,2024-10-10_20h10.48.730,visula search,2024.1.5,None,2024-10-10 20h12.40.319911 +0530,
50,0,50,0,91.92884529998992,,91.888827900053,10,91.92884529998992,91.92884529998992,0.028784000081941485,94.21867960004602,[-0.021296296296296296],[0.11666666666666667],[1],[0],[0],[2.30146029999014],['target'],TS,001,2024-10-10_20h10.48.730,visula search,2024.1.5,None,2024-10-10 20h12.40.319911 +0530,
51,0,51,0,94.25967599998694,,94.22155780007597,10,94.25967599998694,94.25967599998694,0.027291700011119246,96.41832130006514,[0.175],[0.24259259259259258],[1],[0],[0],[2.169772799941711],['target'],TS,001,2024-10-10_20h10.48.730,visula search,2024.1.5,None,2024-10-10 20h12.40.319911 +0530,
52,0,52,0,96.44163750007283,,96.42096680006944,5,96.44163750007283,96.44163750007283,0.013532200013287365,98.017470800085,[-0.3138888888888889],[-0.18611111111111112],[1],[0],[0],[1.5830852000508457],['target'],TS,001,2024-10-10_20h10.48.730,visula search,2024.1.5,None,2024-10-10 20h12.40.319911 +0530,
53,0,53,0,98.05927720002364,,98.02068740001414,10,98.05927720002364,98.05927720002364,0.02747810003347695,99.93317470001057,[0.0],[-0.17685185185185184],[1],[0],[0],[1.8853940000990406],['target'],TS,001,2024-10-10_20h10.48.730,visula search,2024.1.5,None,2024-10-10 20h12.40.319911 +0530,
54,0,54,0,99.9563604000723,,99.93567140004598,5,99.9563604000723,99.9563604000723,0.013437899993732572,101.11614520009607,[-0.041666666666666664],[-0.10648148148148148],[1],[0],[0],[1.167199100018479],['target'],TS,001,2024-10-10_20h10.48.730,visula search,2024.1.5,None,2024-10-10 20h12.40.319911 +0530,
55,0,55,0,101.14130980009213,,101.11903090006672,5,101.14130980009213,101.14130980009213,0.014793499954976141,102.23244839999825,[0.14074074074074075],[0.412962962962963],[1],[0],[0],[1.0988779000472277],['target'],TS,001,2024-10-10_20h10.48.730,visula search,2024.1.5,None,2024-10-10 20h12.40.319911 +0530,
56,0,56,0,102.26006710005458,,102.23603360005654,5,102.26006710005458,102.26006710005458,0.01677919994108379,104.2322637999896,[0.24166666666666667],[-0.1648148148148148],[1],[0],[0],[1.9798458999721333],['target'],TS,001,2024-10-10_20h10.48.730,visula search,2024.1.5,None,2024-10-10 20h12.40.319911 +0530,
57,0,57,0,104.25711950007826,,104.23545030003879,5,104.25711950007826,104.25711950007826,0.01432979991659522,105.54801140003838,[0.007407407407407408],[-0.33611111111111114],[1],[0],[0],[1.2985706999897957],['target'],TS,001,2024-10-10_20h10.48.730,visula search,2024.1.5,None,2024-10-10 20h12.40.319911 +0530,
58,0,58,0,105.57277259998955,,105.55093170003965,5,105.57277259998955,105.57277259998955,0.014645099989138544,106.71414410008583,[0.26851851851851855],[-0.44907407407407407],[1],[0],[0],[1.1488095000386238],['target'],TS,001,2024-10-10_20h10.48.730,visula search,2024.1.5,None,2024-10-10 20h12.40.319911 +0530,
59,0,59,0,106.76040560007095,,106.71716020000167,10,106.76040560007095,106.76040560007095,0.0307168000144884,108.76375800010283,[-0.35],[0.26851851851851855],[1],[0],[0],[2.0162460000719875],['target'],TS,001,2024-10-10_20h10.48.730,visula search,2024.1.5,None,2024-10-10 20h12.40.319911 +0530,
60,0,60,0,108.80439609999303,,108.76642390002962,10,108.80439609999303,108.80439609999303,0.026440000045113266,110.59676740004215,[0.3574074074074074],[0.5],[1],[0],[0],[1.8041493999771774],['target'],TS,001,2024-10-10_20h10.48.730,visula search,2024.1.5,None,2024-10-10 20h12.40.319911 +0530,
61,0,61,0,110.6207132000709,,110.5994204999879,5,110.6207132000709,110.6207132000709,0.013750000041909516,112.74577640008647,[-0.3861111111111111],[-0.062037037037037036],[1],[0],[0],[2.1327730999328196],['target'],TS,001,2024-10-10_20h10.48.730,visula search,2024.1.5,None,2024-10-10 20h12.40.319911 +0530,
62,0,62,0,112.79041630006395,,112.74899009999353,10,112.79041630006395,112.79041630006395,0.029348500072956085,113.87939870008267,[-0.11481481481481481],[0.33055555555555555],[1],[0],[0],[1.1015053000301123],['target'],TS,001,2024-10-10_20h10.48.730,visula search,2024.1.5,None,2024-10-10 20h12.40.319911 +0530,
63,0,63,0,113.91988820000552,,113.88212170009501,10,113.91988820000552,113.91988820000552,0.02631470002233982,115.29511900001671,[-0.3101851851851852],[0.32407407407407407],[1],[0],[0],[1.3868825000245124],['target'],TS,001,2024-10-10_20h10.48.730,visula search,2024.1.5,None,2024-10-10 20h12.40.319911 +0530,
64,0,64,0,115.33576180005912,,115.29778050002642,10,115.33576180005912,115.33576180005912,0.02656100003514439,116.41163089999463,[-0.4305555555555556],[0.4203703703703704],[1],[0],[0],[1.0875018999213353],['target'],TS,001,2024-10-10_20h10.48.730,visula search,2024.1.5,None,2024-10-10 20h12.40.319911 +0530,
65,0,65,0,116.45296910009347,,116.41459900001064,10,116.45296910009347,116.45296910009347,0.027250200044363737,118.29410260007717,[-0.018518518518518517],[-0.07962962962962963],[1],[0],[0],[1.8525670999661088],['target'],TS,001,2024-10-10_20h10.48.730,visula search,2024.1.5,None,2024-10-10 20h12.40.319911 +0530,
66,0,66,0,118.32100340002216,,118.29679450008553,5,118.32100340002216,118.32100340002216,0.015933900023810565,120.14358840009663,[-0.003703703703703704],[0.25555555555555554],[1],[0],[0],[1.8310394000727683],['target'],TS,001,2024-10-10_20h10.48.730,visula search,2024.1.5,None,2024-10-10 20h12.40.319911 +0530,
67,0,67,0,120.16968450008426,,120.14654690003954,5,120.16968450008426,120.16968450008426,0.015634099952876568,121.70954780001193,[-0.4861111111111111],[-0.337037037037037],[1],[0],[0],[1.5476628000615165],['target'],TS,001,2024-10-10_20h10.48.730,visula search,2024.1.5,None,2024-10-10 20h12.40.319911 +0530,
68,0,68,0,121.73495489999186,,121.71220619999804,5,121.73495489999186,121.73495489999186,0.014954400015994906,123.94285750004929,[-0.35555555555555557],[0.4675925925925926],[1],[0],[0],[2.2158119999803603],['target'],TS,001,2024-10-10_20h10.48.730,visula search,2024.1.5,None,2024-10-10 20h12.40.319911 +0530,
69,0,69,0,123.99398430006113,,123.94725050008856,10,123.99398430006113,123.99398430006113,0.03513450000900775,125.55863760004286,[-0.2537037037037037],[-0.17962962962962964],[1],[0],[0],[1.576861499925144],['target'],TS,001,2024-10-10_20h10.48.730,visula search,2024.1.5,None,2024-10-10 20h12.40.319911 +0530,
70,0,70,0,125.60099740000442,,125.5614214000525,10,125.60099740000442,125.60099740000442,0.027758400072343647,126.80871080001816,[-0.44074074074074077],[-0.25555555555555554],[1],[0],[0],[1.2198411000426859],['target'],TS,001,2024-10-10_20h10.48.730,visula search,2024.1.5,None,2024-10-10 20h12.40.319911 +0530,
71,0,71,0,126.83377310005017,,126.81121710001025,5,126.83377310005017,126.83377310005017,0.014621600043028593,127.94125550007448,[-0.05277777777777778],[-0.11574074074074074],[1],[0],[0],[1.1156018999172375],['target'],TS,001,2024-10-10_20h10.48.730,visula search,2024.1.5,None,2024-10-10 20h12.40.319911 +0530,
72,0,72,0,127.96829950006213,,127.94428610010073,5,127.96829950006213,127.96829950006213,0.015581000014208257,130.75643599999603,[0.14722222222222223],[-0.3287037037037037],[1],[0],[0],[2.7967881999211386],[],TS,001,2024-10-10_20h10.48.730,visula search,2024.1.5,None,2024-10-10 20h12.40.319911 +0530,
73,0,73,0,130.78300820000004,,130.75976829999126,5,130.78300820000004,130.78300820000004,0.015877600060775876,133.0060128000332,[-0.5074074074074074],[0.22314814814814815],[1],[0],[0],[2.230782500002533],['target'],TS,001,2024-10-10_20h10.48.730,visula search,2024.1.5,None,2024-10-10 20h12.40.319911 +0530,
74,0,74,0,133.0327858000528,,133.00924959999975,5,133.0327858000528,133.0327858000528,0.01595690008252859,134.52227110008243,[-0.46296296296296297],[0.43425925925925923],[1],[0],[0],[1.4974473000038415],['target'],TS,001,2024-10-10_20h10.48.730,visula search,2024.1.5,None,2024-10-10 20h12.40.319911 +0530,
75,0,75,0,134.54625340003986,,134.52490330010187,5,134.54625340003986,134.54625340003986,0.013947899919003248,136.13839330000337,[0.25092592592592594],[0.37777777777777777],[1],[0],[0],[1.5996941999765113],['target'],TS,001,2024-10-10_20h10.48.730,visula search,2024.1.5,None,2024-10-10 20h12.40.319911 +0530,
76,0,76,0,136.1801038000267,,136.14164990000427,10,136.1801038000267,136.1801038000267,0.027313999948091805,138.53764900006354,[0.47962962962962963],[-0.45740740740740743],[1],[0],[0],[2.3690703000174835],['target'],TS,001,2024-10-10_20h10.48.730,visula search,2024.1.5,None,2024-10-10 20h12.40.319911 +0530,
77,0,77,0,138.563041800051,,138.54033350001555,5,138.563041800051,138.563041800051,0.014171199989505112,140.5541050999891,[0.2462962962962963],[0.3416666666666667],[1],[0],[0],[1.99979960010387],['target'],TS,001,2024-10-10_20h10.48.730,visula search,2024.1.5,None,2024-10-10 20h12.40.319911 +0530,
78,0,78,0,140.5954887000844,,140.5570608000271,10,140.5954887000844,140.5954887000844,0.027086199959740043,142.1203385000117,[0.0787037037037037],[0.4861111111111111],[1],[0],[0],[1.5364760999800637],['target'],TS,001,2024-10-10_20h10.48.730,visula search,2024.1.5,None,2024-10-10 20h12.40.319911 +0530,
79,0,79,0,142.14312290004455,,142.12291400006507,5,142.14312290004455,142.14312290004455,0.013217900064773858,146.11855380004272,[0.41759259259259257],[0.16574074074074074],[1],[0],[0],[3.982654200051911],['target'],TS,001,2024-10-10_20h10.48.730,visula search,2024.1.5,None,2024-10-10 20h12.40.319911 +0530,
80,0,80,0,146.14498700003605,,146.1217978000641,5,146.14498700003605,146.14498700003605,0.015547099988907576,147.41758960008156,[0.3398148148148148],[0.4638888888888889],[1],[0],[0],[1.2805455999914557],['target'],TS,001,2024-10-10_20h10.48.730,visula search,2024.1.5,None,2024-10-10 20h12.40.319911 +0530,
81,0,81,0,147.44249380007386,,147.42060010007117,5,147.44249380007386,147.44249380007386,0.014724400010891259,154.68222750001587,[-0.45],[0.4388888888888889],[1],[0],[0],[7.247078699991107],['target'],TS,001,2024-10-10_20h10.48.730,visula search,2024.1.5,None,2024-10-10 20h12.40.319911 +0530,
82,0,82,0,154.72576300008222,,154.6852139000548,10,154.72576300008222,154.72576300008222,0.029065500013530254,157.54778970009647,[0.32685185185185184],[-0.1685185185185185],[1],[0],[0],[2.8338069999590516],['target'],TS,001,2024-10-10_20h10.48.730,visula search,2024.1.5,None,2024-10-10 20h12.40.319911 +0530,
83,0,83,0,157.57358289998956,,157.55078749998938,5,157.57358289998956,157.57358289998956,0.015353100025095046,159.8970440000994,[0.27870370370370373],[0.4787037037037037],[1],[0],[0],[2.3310911000007764],['target'],TS,001,2024-10-10_20h10.48.730,visula search,2024.1.5,None,2024-10-10 20h12.40.319911 +0530,
84,0,84,0,159.93855090008583,,159.9000147000188,10,159.93855090008583,159.93855090008583,0.02732059999834746,161.56322790007107,[0.11018518518518519],[-0.21851851851851853],[1],[0],[0],[1.6362245000200346],['target'],TS,001,2024-10-10_20h10.48.730,visula search,2024.1.5,None,2024-10-10 20h12.40.319911 +0530,
85,0,85,0,161.6032344000414,,161.56576400005724,10,161.6032344000414,161.6032344000414,0.026480400003492832,164.02862590004224,[0.22962962962962963],[0.3037037037037037],[1],[0],[0],[2.4366072000702843],['target'],TS,001,2024-10-10_20h10.48.730,visula search,2024.1.5,None,2024-10-10 20h12.40.319911 +0530,
86,0,86,0,164.05157440004405,,164.0312009000918,5,164.05157440004405,164.05157440004405,0.013423600001260638,165.345168900094,[-0.425],[-0.44074074074074077],[1],[0],[0],[1.3007002000231296],['target'],TS,001,2024-10-10_20h10.48.730,visula search,2024.1.5,None,2024-10-10 20h12.40.319911 +0530,
87,0,87,0,165.37218130007386,,165.34863420005422,5,165.37218130007386,165.37218130007386,0.016138399951159954,166.69480040005874,[-0.009259259259259259],[0.387037037037037],[1],[0],[0],[1.3303207999560982],['target'],TS,001,2024-10-10_20h10.48.730,visula search,2024.1.5,None,2024-10-10 20h12.40.319911 +0530,
88,0,88,0,166.7203795000678,,166.69819670007564,5,166.7203795000678,166.7203795000678,0.014970700023695827,169.06045700004324,[-0.07407407407407407],[-0.46111111111111114],[1],[0],[0],[2.3476105000590906],['target'],TS,001,2024-10-10_20h10.48.730,visula search,2024.1.5,None,2024-10-10 20h12.40.319911 +0530,
89,0,89,0,169.08598110009916,,169.06337860005442,5,169.08598110009916,169.08598110009916,0.015389900072477758,169.76027600001544,[-0.22037037037037038],[-0.41574074074074074],[1],[0],[0],[0.6816405000863597],[],TS,001,2024-10-10_20h10.48.730,visula search,2024.1.5,None,2024-10-10 20h12.40.319911 +0530,
90,0,90,0,169.80485350009985,,169.76369789999444,10,169.80485350009985,169.80485350009985,0.02939840010367334,170.85994660004508,[-0.18333333333333332],[-0.20185185185185187],[1],[0],[0],[1.067287200014107],['target'],TS,001,2024-10-10_20h10.48.730,visula search,2024.1.5,None,2024-10-10 20h12.40.319911 +0530,
91,0,91,0,170.88366240006872,,170.86268710007425,5,170.88366240006872,170.88366240006872,0.013829599949531257,172.45948190009221,[0.46296296296296297],[-0.275],[1],[0],[0],[1.5831925000529736],[],TS,001,2024-10-10_20h10.48.730,visula search,2024.1.5,None,2024-10-10 20h12.40.319911 +0530,
92,0,92,0,172.50418809999246,,172.4624938000925,10,172.50418809999246,172.50418809999246,0.029634400038048625,174.45953490003012,[-0.05462962962962963],[0.262037037037037],[1],[0],[0],[1.9676551000447944],['target'],TS,001,2024-10-10_20h10.48.730,visula search,2024.1.5,None,2024-10-10 20h12.40.319911 +0530,
93,0,93,0,174.50045849999879,,174.46219430002384,10,174.50045849999879,174.50045849999879,0.02673399995546788,176.29261130001396,[-0.2574074074074074],[-0.1935185185185185],[1],[0],[0],[1.8037724000168964],['target'],TS,001,2024-10-10_20h10.48.730,visula search,2024.1.5,None,2024-10-10 20h12.40.319911 +0530,
94,0,94,0,176.31877460004762,,176.29534599999897,5,176.31877460004762,176.31877460004762,0.015391600085422397,178.40842890006024,[0.14907407407407408],[0.39351851851851855],[1],[0],[0],[2.0977840999839827],['target'],TS,001,2024-10-10_20h10.48.730,visula search,2024.1.5,None,2024-10-10 20h12.40.319911 +0530,
95,0,95,0,178.44841370009817,,178.41095450008288,10,178.44841370009817,178.44841370009817,0.026324499980546534,179.70784670009743,[0.06759259259259259],[0.30925925925925923],[1],[0],[0],[1.2707575999666005],['target'],TS,001,2024-10-10_20h10.48.730,visula search,2024.1.5,None,2024-10-10 20h12.40.319911 +0530,
96,0,96,0,179.7315008000005,,179.71039950009435,5,179.7315008000005,179.7315008000005,0.013709799968637526,181.57316520006862,[0.01574074074074074],[-0.2851851851851852],[1],[0],[0],[1.8492763999383897],['target'],TS,001,2024-10-10_20h10.48.730,visula search,2024.1.5,None,2024-10-10 20h12.40.319911 +0530,
97,0,97,0,181.61561900004745,,181.57605360005982,10,181.61561900004745,181.61561900004745,0.02741129999049008,182.88943189999554,[-0.25925925925925924],[0.007407407407407408],[1],[0],[0],[1.2862296999664977],['target'],TS,001,2024-10-10_20h10.48.730,visula search,2024.1.5,None,2024-10-10 20h12.40.319911 +0530,
98,0,98,0,182.91351750004105,,182.8921719000209,5,182.91351750004105,182.91351750004105,0.014106500078924,184.27256390010007,[-0.32314814814814813],[-0.1925925925925926],[1],[0],[0],[1.366493400069885],['target'],TS,001,2024-10-10_20h10.48.730,visula search,2024.1.5,None,2024-10-10 20h12.40.319911 +0530,
99,0,99,0,184.29904850001913,,184.27580300008412,5,184.29904850001913,184.29904850001913,0.01579840003978461,186.4051204000134,[0.3861111111111111],[-0.3851851851851852],[1],[0],[0],[2.1138719000155106],['target'],TS,001,2024-10-10_20h10.48.730,visula search,2024.1.5,None,2024-10-10 20h12.40.319911 +0530,
100,0,100,0,186.43162370007485,,186.40803739998955,5,186.43162370007485,186.43162370007485,0.01572440005838871,187.8216429000022,[-0.28425925925925927],[-0.041666666666666664],[1],[0],[0],[1.398165600025095],['target'],TS,001,2024-10-10_20h10.48.730,visula search,2024.1.5,None,2024-10-10 20h12.40.319911 +0530,
101,0,101,0,187.86532290000468,,187.82475960010197,10,187.86532290000468,187.86532290000468,0.029444199986755848,189.33739690005314,[0.25092592592592594],[-0.34074074074074073],[1],[0],[0],[1.4835153999738395],['target'],TS,001,2024-10-10_20h10.48.730,visula search,2024.1.5,None,2024-10-10 20h12.40.319911 +0530,
102,0,102,0,189.36160820000805,,189.33992520009633,5,189.36160820000805,189.36160820000805,0.013932900037616491,190.52138030005153,[-0.2814814814814815],[-0.22592592592592592],[1],[0],[0],[1.1676698999945074],['target'],TS,001,2024-10-10_20h10.48.730,visula search,2024.1.5,None,2024-10-10 20h12.40.319911 +0530,
103,0,103,0,190.54773390002083,,190.52442750008777,5,190.54773390002083,190.54773390002083,0.01538210001308471,191.87052460003179,[-0.3138888888888889],[0.1787037037037037],[1],[0],[0],[1.330974500044249],['target'],TS,001,2024-10-10_20h10.48.730,visula search,2024.1.5,None,2024-10-10 20h12.40.319911 +0530,
104,0,104,0,191.9106331000803,,191.87332850007806,10,191.9106331000803,191.9106331000803,0.026084500015713274,194.53617269999813,[0.18425925925925926],[-0.3351851851851852],[1],[0],[0],[2.6370484000071883],['target'],TS,001,2024-10-10_20h10.48.730,visula search,2024.1.5,None,2024-10-10 20h12.40.319911 +0530,
105,0,105,0,194.57995360007044,,194.5390682000434,10,194.57995360007044,194.57995360007044,0.028823299915529788,195.9021003000671,[-0.2101851851851852],[-0.11296296296296296],[1],[0],[0],[1.334400000050664],['target'],TS,001,2024-10-10_20h10.48.730,visula search,2024.1.5,None,2024-10-10 20h12.40.319911 +0530,
106,0,106,0,195.92637590004597,,195.90480250003748,5,195.92637590004597,195.92637590004597,0.013998900074511766,197.10232970002107,[-0.4101851851851852],[0.12314814814814815],[1],[0],[0],[1.183682700037025],['target'],TS,001,2024-10-10_20h10.48.730,visula search,2024.1.5,None,2024-10-10 20h12.40.319911 +0530,
107,0,107,0,197.14404010004364,,197.1055622000713,10,197.14404010004364,197.14404010004364,0.0277859999332577,200.2843472000677,[-0.09907407407407408],[0.44537037037037036],[1],[0],[0],[3.1513685999670997],['target'],TS,001,2024-10-10_20h10.48.730,visula search,2024.1.5,None,2024-10-10 20h12.40.319911 +0530,
108,0,108,0,200.3242296000244,,200.286892300006,10,200.3242296000244,200.3242296000244,0.0262168999761343,203.0342779000057,[0.35648148148148145],[-0.06574074074074074],[1],[0],[0],[2.7213484999956563],['target'],TS,001,2024-10-10_20h10.48.730,visula search,2024.1.5,None,2024-10-10 20h12.40.319911 +0530,
109,0,109,0,203.0765266000526,,203.03690830001142,10,203.0765266000526,203.0765266000526,0.028152999933809042,206.24968770006672,[0.4027777777777778],[0.4361111111111111],[1],[0],[0],[3.1849063999252394],['target'],TS,001,2024-10-10_20h10.48.730,visula search,2024.1.5,None,2024-10-10 20h12.40.319911 +0530,
110,0,110,0,206.2734913000604,,206.25232810003217,5,206.2734913000604,206.2734913000604,0.013837600010447204,208.59868330007885,[0.23148148148148148],[-0.3527777777777778],[1],[0],[0],[2.332653399906121],['target'],TS,001,2024-10-10_20h10.48.730,visula search,2024.1.5,None,2024-10-10 20h12.40.319911 +0530,
111,0,111,0,208.64170040003955,,208.60145710001234,10,208.64170040003955,208.64170040003955,0.028828199952840805,210.33114470005967,[0.262037037037037],[0.012962962962962963],[1],[0],[0],[1.7009372999891639],['target'],TS,001,2024-10-10_20h10.48.730,visula search,2024.1.5,None,2024-10-10 20h12.40.319911 +0530,
112,0,112,0,210.35541310010012,,210.33373529999517,5,210.35541310010012,210.35541310010012,0.014137300080619752,212.51415579998866,[-0.1925925925925926],[-0.3277777777777778],[1],[0],[0],[2.1664555000606924],['target'],TS,001,2024-10-10_20h10.48.730,visula search,2024.1.5,None,2024-10-10 20h12.40.319911 +0530,
113,0,113,0,212.5590727000963,,212.51676700008102,10,212.5590727000963,212.5590727000963,0.030142099945805967,213.88008720008656,[-0.08888888888888889],[-0.09259259259259259],[1],[0],[0],[1.3334286999888718],['target'],TS,001,2024-10-10_20h10.48.730,visula search,2024.1.5,None,2024-10-10 20h12.40.319911 +0530,
114,0,114,0,213.92148000001907,,213.8829106000485,10,213.92148000001907,213.92148000001907,0.027217400027438998,216.01315530005377,[0.3287037037037037],[0.2759259259259259],[1],[0],[0],[2.1032986999489367],['target'],TS,001,2024-10-10_20h10.48.730,visula search,2024.1.5,None,2024-10-10 20h12.40.319911 +0530,
115,0,115,0,216.05435069999658,,216.01623629999813,10,216.05435069999658,216.05435069999658,0.02720390004105866,217.59574470005464,[-0.16018518518518518],[0.03425925925925926],[1],[0],[0],[1.5524853001115844],['target'],TS,001,2024-10-10_20h10.48.730,visula search,2024.1.5,None,2024-10-10 20h12.40.319911 +0530,
116,0,116,0,217.63827400002629,,217.59858140000142,10,217.63827400002629,217.63827400002629,0.02751629997510463,218.89464060007595,[-0.337037037037037],[0.03888888888888889],[1],[0],[0],[1.2688052000012249],['target'],TS,001,2024-10-10_20h10.48.730,visula search,2024.1.5,None,2024-10-10 20h12.40.319911 +0530,
117,0,117,0,218.91982890001964,,218.89759990002494,5,218.91982890001964,218.91982890001964,0.014908800018019974,220.34436620003544,[0.3861111111111111],[0.29444444444444445],[1],[0],[0],[1.432093400042504],['target'],TS,001,2024-10-10_20h10.48.730,visula search,2024.1.5,None,2024-10-10 20h12.40.319911 +0530,
118,0,118,0,220.3869554999983,,220.34729010006413,10,220.3869554999983,220.3869554999983,0.02813280001282692,223.44354370003566,[0.387037037037037],[-0.4064814814814815],[1],[0],[0],[3.0682043000124395],['target'],TS,001,2024-10-10_20h10.48.730,visula search,2024.1.5,None,2024-10-10 20h12.40.319911 +0530,
119,0,119,0,223.46973330003675,,223.44648130005226,5,223.46973330003675,223.46973330003675,0.015614899923093617,225.50967679999303,[0.47314814814814815],[0.10555555555555556],[1],[0],[0],[2.0478444000473246],['target'],TS,001,2024-10-10_20h10.48.730,visula search,2024.1.5,None,2024-10-10 20h12.40.319911 +0530,
120,0,120,0,225.55191020003986,,225.51278840005398,10,225.55191020003986,225.55191020003986,0.02783759997691959,226.62624880007934,[0.3592592592592593],[0.019444444444444445],[1],[0],[0],[1.0859553000191227],['target'],TS,001,2024-10-10_20h10.48.730,visula search,2024.1.5,None,2024-10-10 20h12.40.319911 +0530,
121,0,121,0,226.6787539999932,,226.62896280002315,10,226.6787539999932,226.6787539999932,0.03784419992007315,230.49138220003806,[-0.44907407407407407],[0.47685185185185186],[1],[0],[0],[3.8247597999870777],['target'],TS,001,2024-10-10_20h10.48.730,visula search,2024.1.5,None,2024-10-10 20h12.40.319911 +0530,
122,0,122,0,230.51521199999843,,230.49414050008636,5,230.51521199999843,230.51521199999843,0.013932900037616491,232.55750049999915,[0.44166666666666665],[0.12962962962962962],[1],[0],[0],[2.0495918000815436],['target'],TS,001,2024-10-10_20h10.48.730,visula search,2024.1.5,None,2024-10-10 20h12.40.319911 +0530,
123,0,123,0,232.5988850001013,,232.56042130000424,10,232.5988850001013,232.5988850001013,0.027514299959875643,234.55626580002718,[0.30833333333333335],[-0.02962962962962963],[1],[0],[0],[1.9686093999771401],['target'],TS,001,2024-10-10_20h10.48.730,visula search,2024.1.5,None,2024-10-10 20h12.40.319911 +0530,
124,0,124,0,234.59670950006694,,234.55897160002496,10,234.59670950006694,234.59670950006694,0.026398400077596307,236.12266730004922,[-0.06481481481481481],[0.14074074074074075],[1],[0],[0],[1.5375427000690252],['target'],TS,001,2024-10-10_20h10.48.730,visula search,2024.1.5,None,2024-10-10 20h12.40.319911 +0530,
125,0,125,0,236.14664410008118,,236.1253674000036,5,236.14664410008118,236.14664410008118,0.013939799973741174,237.4225384000456,[-0.002777777777777778],[-0.11944444444444445],[1],[0],[0],[1.2833892999915406],['target'],TS,001,2024-10-10_20h10.48.730,visula search,2024.1.5,None,2024-10-10 20h12.40.319911 +0530,
126,0,126,0,237.4648567000404,,237.4253792000236,10,237.4648567000404,237.4648567000404,0.028156100073829293,241.20462410000619,[-0.37777777777777777],[0.44537037037037036],[1],[0],[0],[3.751356700086035],['target'],TS,001,2024-10-10_20h10.48.730,visula search,2024.1.5,None,2024-10-10 20h12.40.319911 +0530,
127,0,127,0,241.24912250007037,,241.20730610005558,10,241.24912250007037,241.24912250007037,0.02981760003603995,243.7869780000765,[-0.31203703703703706],[-0.3592592592592593],[1],[0],[0],[2.5501188999041915],['target'],TS,001,2024-10-10_20h10.48.730,visula search,2024.1.5,None,2024-10-10 20h12.40.319911 +0530,
128,0,128,0,243.81253019999713,,243.78968980000354,5,243.81253019999713,243.81253019999713,0.014992900076322258,245.686377700069,[0.14351851851851852],[0.3398148148148148],[1],[0],[0],[1.8819278998998925],['target'],TS,001,2024-10-10_20h10.48.730,visula search,2024.1.5,None,2024-10-10 20h12.40.319911 +0530,
129,0,129,0,245.7269716000883,,245.6891476000892,10,245.7269716000883,245.7269716000883,0.02664950001053512,248.78519770002458,[-0.018518518518518517],[0.06574074074074074],[1],[0],[0],[3.069690499920398],['target'],TS,001,2024-10-10_20h10.48.730,visula search,2024.1.5,None,2024-10-10 20h12.40.319911 +0530,
130,0,130,0,248.82950960006565,,248.78780859999824,10,248.82950960006565,248.82950960006565,0.029081300017423928,250.78518720006105,[0.030555555555555555],[-0.42592592592592593],[1],[0],[0],[1.968464499921538],['target'],TS,001,2024-10-10_20h10.48.730,visula search,2024.1.5,None,2024-10-10 20h12.40.319911 +0530,
131,0,131,0,250.80949870008044,,250.78776179999113,5,250.80949870008044,250.80949870008044,0.014295100001618266,252.46740650001448,[0.34074074074074073],[-0.1638888888888889],[1],[0],[0],[1.665558799984865],['target'],TS,001,2024-10-10_20h10.48.730,visula search,2024.1.5,None,2024-10-10 20h12.40.319911 +0530,
132,0,132,0,252.51220500003546,,252.4708277999889,10,252.51220500003546,252.51220500003546,0.0296658999286592,254.44995450007264,[0.11203703703703703],[-0.3787037037037037],[1],[0],[0],[1.9497861999552697],['target'],TS,001,2024-10-10_20h10.48.730,visula search,2024.1.5,None,2024-10-10 20h12.40.319911 +0530,
133,0,133,0,254.4754447999876,,254.45275470009074,5,254.4754447999876,254.4754447999876,0.014654000056907535,256.3330819000257,[-0.4935185185185185],[0.487962962962963],[1],[0],[0],[1.8660161000443622],['target'],TS,001,2024-10-10_20h10.48.730,visula search,2024.1.5,None,2024-10-10 20h12.40.319911 +0530,
134,0,134,0,256.3738960000919,,256.336006400059,10,256.3738960000919,256.3738960000919,0.02644229994621128,258.8321987000527,[0.37222222222222223],[0.0787037037037037],[1],[0],[0],[2.47007839998696],['target'],TS,001,2024-10-10_20h10.48.730,visula search,2024.1.5,None,2024-10-10 20h12.40.319911 +0530,
135,0,135,0,258.8730148000177,,258.8346873000264,10,258.8730148000177,258.8730148000177,0.02669700002297759,260.73183810000774,[-0.17314814814814813],[0.3074074074074074],[1],[0],[0],[1.8705591999460012],['target'],TS,001,2024-10-10_20h10.48.730,visula search,2024.1.5,None,2024-10-10 20h12.40.319911 +0530,
136,0,136,0,260.77223950007465,,260.73450630006846,10,260.77223950007465,260.77223950007465,0.026625399943441153,263.9141534999944,[0.3675925925925926],[-0.1],[1],[0],[0],[3.1531686999369413],['target'],TS,001,2024-10-10_20h10.48.730,visula search,2024.1.5,None,2024-10-10 20h12.40.319911 +0530,
137,0,137,0,263.93839460005984,,263.91697280004155,5,263.93839460005984,263.93839460005984,0.014268800034187734,265.11382289999165,[0.35833333333333334],[-0.06481481481481481],[1],[0],[0],[1.1828074000077322],['target'],TS,001,2024-10-10_20h10.48.730,visula search,2024.1.5,None,2024-10-10 20h12.40.319911 +0530,
138,0,138,0,265.1379195000045,,265.1167249000864,5,265.1379195000045,265.1379195000045,0.014102899935096502,266.69585050002206,[0.45],[-0.08611111111111111],[1],[0],[0],[1.5652973999967799],['target'],TS,001,2024-10-10_20h10.48.730,visula search,2024.1.5,None,2024-10-10 20h12.40.319911 +0530,
139,0,139,0,266.7208824000554,,266.69891800009646,5,266.7208824000554,266.7208824000554,0.014893899904564023,268.1456715000095,[0.4842592592592593],[0.11481481481481481],[1],[0],[0],[1.4320805000606924],['target'],TS,001,2024-10-10_20h10.48.730,visula search,2024.1.5,None,2024-10-10 20h12.40.319911 +0530,
140,0,140,0,268.1874220999889,,268.14870230003726,10,268.1874220999889,268.1874220999889,0.02771169994957745,269.728811900015,[-0.062037037037037036],[0.4185185185185185],[1],[0],[0],[1.5526747000403702],['target'],TS,001,2024-10-10_20h10.48.730,visula search,2024.1.5,None,2024-10-10 20h12.40.319911 +0530,
141,0,141,0,269.7690588000696,,269.7313785000006,10,269.7690588000696,269.7690588000696,0.026277400087565184,272.2113292000722,[0.37962962962962965],[-0.41944444444444445],[1],[0],[0],[2.453857099986635],['target'],TS,001,2024-10-10_20h10.48.730,visula search,2024.1.5,None,2024-10-10 20h12.40.319911 +0530,
142,0,142,0,272.2370161000872,,272.2141706000548,5,272.2370161000872,272.2370161000872,0.014934999984689057,275.626955899992,[-0.020370370370370372],[0.009259259259259259],[1],[0],[0],[3.3980291000334546],['target'],TS,001,2024-10-10_20h10.48.730,visula search,2024.1.5,None,2024-10-10 20h12.40.319911 +0530,
143,0,143,0,275.6687734000152,,275.629842900089,10,275.6687734000152,275.6687734000152,0.02810150000732392,277.1432830000995,[-0.175],[-0.33240740740740743],[1],[0],[0],[1.4854513000464067],['target'],TS,001,2024-10-10_20h10.48.730,visula search,2024.1.5,None,2024-10-10 20h12.40.319911 +0530,
144,0,144,0,277.1851223000558,,277.1461190000409,10,277.1851223000558,277.1851223000558,0.027555800043046474,278.7424602000974,[0.2833333333333333],[-0.12222222222222222],[1],[0],[0],[1.569025400094688],['target'],TS,001,2024-10-10_20h10.48.730,visula search,2024.1.5,None,2024-10-10 20h12.40.319911 +0530,
145,0,145,0,278.7681857000571,,278.7454299000092,5,278.7681857000571,278.7681857000571,0.014978299965150654,279.82591850007884,[0.11018518518518519],[-0.4185185185185185],[1],[0],[0],[1.0656883000629023],['target'],TS,001,2024-10-10_20h10.48.730,visula search,2024.1.5,None,2024-10-10 20h12.40.319911 +0530,
146,0,146,0,279.8691894999938,,279.8291913000867,10,279.8691894999938,279.8691894999938,0.02869409997947514,281.0247500000987,[-0.13796296296296295],[-0.362962962962963],[1],[0],[0],[1.1672049999469891],['target'],TS,001,2024-10-10_20h10.48.730,visula search,2024.1.5,None,2024-10-10 20h12.40.319911 +0530,
147,0,147,0,281.0684887000825,,281.0277702000458,10,281.0684887000825,281.0684887000825,0.029096900019794703,282.95743910002057,[-0.3685185185185185],[0.1574074074074074],[1],[0],[0],[1.900924399960786],['target'],TS,001,2024-10-10_20h10.48.730,visula search,2024.1.5,None,2024-10-10 20h12.40.319911 +0530,
148,0,148,0,282.9975820000982,,282.9600682000164,10,282.9975820000982,282.9975820000982,0.026316499919630587,286.00716060004197,[0.15925925925925927],[0.13148148148148148],[1],[0],[0],[3.020913099986501],['target'],TS,001,2024-10-10_20h10.48.730,visula search,2024.1.5,None,2024-10-10 20h12.40.319911 +0530,
149,0,149,0,286.031548100058,,286.00988840009086,5,286.031548100058,286.031548100058,0.014302599942311645,287.62312510004267,[0.25462962962962965],[-0.3175925925925926],[1],[0],[0],[1.5990985999815166],['target'],TS,001,2024-10-10_20h10.48.730,visula search,2024.1.5,None,2024-10-10 20h12.40.319911 +0530,
150,0,150,0,287.6720000000205,,287.6273192000808,10,287.6720000000205,287.6720000000205,0.032978100003674626,289.2391884000972,[-0.037037037037037035],[0.17592592592592593],[1],[0],[0],[1.5795117999659851],['target'],TS,001,2024-10-10_20h10.48.730,visula search,2024.1.5,None,2024-10-10 20h12.40.319911 +0530,
151,0,151,0,289.2630094999913,,289.24190880008973,5,289.2630094999913,289.2630094999913,0.013707100064493716,290.77191520005,[-0.18518518518518517],[-0.19074074074074074],[1],[0],[0],[1.5163464000215754],['target'],TS,001,2024-10-10_20h10.48.730,visula search,2024.1.5,None,2024-10-10 20h12.40.319911 +0530,
152,0,152,0,290.8153020000318,,290.7748241000809,10,290.8153020000318,290.8153020000318,0.029346700059249997,292.4884743000148,[0.16296296296296298],[-0.45740740740740743],[1],[0],[0],[1.684504099888727],['target'],TS,001,2024-10-10_20h10.48.730,visula search,2024.1.5,None,2024-10-10 20h12.40.319911 +0530,
153,0,153,0,292.51343240006827,,292.4911288000876,5,292.51343240006827,292.51343240006827,0.014698399929329753,293.4879085000139,[0.24351851851851852],[-0.4074074074074074],[1],[0],[0],[0.9822728999424726],['target'],TS,001,2024-10-10_20h10.48.730,visula search,2024.1.5,None,2024-10-10 20h12.40.319911 +0530,
154,0,154,0,293.5143211000832,,293.4908116000006,5,293.5143211000832,293.5143211000832,0.015606800094246864,295.1206106999889,[0.06111111111111111],[-0.10185185185185185],[1],[0],[0],[1.614465199992992],['target'],TS,001,2024-10-10_20h10.48.730,visula search,2024.1.5,None,2024-10-10 20h12.40.319911 +0530,
155,0,155,0,295.16410460008774,,295.12409120006487,10,295.16410460008774,295.16410460008774,0.029170699999667704,297.1194832000183,[0.48148148148148145],[0.11481481481481481],[1],[0],[0],[1.9666382999857888],['target'],TS,001,2024-10-10_20h10.48.730,visula search,2024.1.5,None,2024-10-10 20h12.40.319911 +0530,
156,0,156,0,297.14300440007355,,297.1220933001023,5,297.14300440007355,297.14300440007355,0.013475499930791557,298.53624490008224,[-0.15648148148148147],[0.3861111111111111],[1],[0],[0],[1.4008788999635726],['target'],TS,001,2024-10-10_20h10.48.730,visula search,2024.1.5,None,2024-10-10 20h12.40.319911 +0530,
157,0,157,0,298.5616340000415,,298.5394100000849,5,298.5616340000415,298.5616340000415,0.014567399979569018,300.05238160002045,[0.24814814814814815],[-0.23333333333333334],[1],[0],[0],[1.4986652999650687],['target'],TS,001,2024-10-10_20h10.48.730,visula search,2024.1.5,None,2024-10-10 20h12.40.319911 +0530,
158,0,158,0,300.0966475000605,,300.05510550003964,10,300.0966475000605,300.0966475000605,0.02887240005657077,301.5681692000944,[0.3111111111111111],[0.05462962962962963],[1],[0],[0],[1.484399100067094],['target'],TS,001,2024-10-10_20h10.48.730,visula search,2024.1.5,None,2024-10-10 20h12.40.319911 +0530,
159,0,159,0,301.61012930003926,,301.5709412000142,10,301.61012930003926,301.61012930003926,0.026707799988798797,304.0845774000045,[-0.41388888888888886],[0.4444444444444444],[1],[0],[0],[2.4871722999960184],['target'],TS,001,2024-10-10_20h10.48.730,visula search,2024.1.5,None,2024-10-10 20h12.40.319911 +0530,
160,0,160,0,304.12586590007413,,304.08768090000376,10,304.12586590007413,304.12586590007413,0.026752099976874888,305.6168592000613,[-0.12777777777777777],[0.10740740740740741],[1],[0],[0],[1.5027501999866217],['target'],TS,001,2024-10-10_20h10.48.730,visula search,2024.1.5,None,2024-10-10 20h12.40.319911 +0530,
161,0,161,0,305.66112120007165,,305.6200697000604,10,305.66112120007165,305.66112120007165,0.028631599969230592,307.0169469000539,[-0.4166666666666667],[-0.06481481481481481],[1],[0],[0],[1.3685682999202982],['target'],TS,001,2024-10-10_20h10.48.730,visula search,2024.1.5,None,2024-10-10 20h12.40.319911 +0530,
162,0,162,0,307.04096320003737,,307.0196195000317,5,307.04096320003737,307.04096320003737,0.01332989998627454,308.49966380000114,[0.1814814814814815],[-0.39537037037037037],[1],[0],[0],[1.4669067999348044],['target'],TS,001,2024-10-10_20h10.48.730,visula search,2024.1.5,None,2024-10-10 20h12.40.319911 +0530,
163,0,163,0,308.5259950000327,,308.5028115999885,5,308.5259950000327,308.5259950000327,0.015213799895718694,310.11565799999516,[0.1527777777777778],[-0.03333333333333333],[1],[0],[0],[1.5978620999958366],['target'],TS,001,2024-10-10_20h10.48.730,visula search,2024.1.5,None,2024-10-10 20h12.40.319911 +0530,
164,0,164,0,310.1564402000513,,310.11839330010116,10,310.1564402000513,310.1564402000513,0.026617399998940527,311.16547740006354,[0.12685185185185185],[0.03981481481481482],[1],[0],[0],[1.020661599934101],['target'],TS,001,2024-10-10_20h10.48.730,visula search,2024.1.5,None,2024-10-10 20h12.40.319911 +0530,
165,0,165,0,311.1893553000409,,311.16820409998763,5,311.1893553000409,311.1893553000409,0.013555799960158765,312.2486285000341,[0.08055555555555556],[0.11574074074074074],[1],[0],[0],[1.0670600000303239],['target'],TS,001,2024-10-10_20h10.48.730,visula search,2024.1.5,None,2024-10-10 20h12.40.319911 +0530,
166,0,166,0,312.27378360007424,,312.25159340002574,5,312.27378360007424,312.27378360007424,0.01423980004619807,313.6978856000351,[0.20185185185185187],[0.125],[1],[0],[0],[1.4323368000332266],['target'],TS,001,2024-10-10_20h10.48.730,visula search,2024.1.5,None,2024-10-10 20h12.40.319911 +0530,
167,0,167,0,313.73965440003667,,313.7010849000653,10,313.73965440003667,313.73965440003667,0.02694269991479814,314.94741740007885,[-0.08148148148148149],[-0.041666666666666664],[1],[0],[0],[1.2197709999745712],['target'],TS,001,2024-10-10_20h10.48.730,visula search,2024.1.5,None,2024-10-10 20h12.40.319911 +0530,
168,0,168,0,314.99264890002087,,314.94995929999277,10,314.99264890002087,314.99264890002087,0.02919779997318983,316.8634795000544,[0.19814814814814816],[-0.04259259259259259],[1],[0],[0],[1.8845616000471637],['target'],TS,001,2024-10-10_20h10.48.730,visula search,2024.1.5,None,2024-10-10 20h12.40.319911 +0530,
169,0,169,0,316.9079721000744,,316.8660928000463,10,316.9079721000744,316.9079721000744,0.028615899966098368,318.43004700005986,[-0.11203703703703703],[-0.38055555555555554],[1],[0],[0],[1.5355234999442473],['target'],TS,001,2024-10-10_20h10.48.730,visula search,2024.1.5,None,2024-10-10 20h12.40.319911 +0530,
170,0,170,0,318.4741489000153,,318.4327125001,10,318.4741489000153,318.4741489000153,0.027599900029599667,319.84565150004346,[-0.31296296296296294],[-0.36574074074074076],[1],[0],[0],[1.3855930999852717],['target'],TS,001,2024-10-10_20h10.48.730,visula search,2024.1.5,None,2024-10-10 20h12.40.319911 +0530,
171,0,171,0,319.87024860002566,,319.8482783000218,5,319.87024860002566,319.87024860002566,0.01404120004735887,321.76196910010185,[-0.2861111111111111],[0.46111111111111114],[1],[0],[0],[1.8998876999830827],['target'],TS,001,2024-10-10_20h10.48.730,visula search,2024.1.5,None,2024-10-10 20h12.40.319911 +0530,
172,0,172,0,321.80312080006115,,321.7647806000896,10,321.80312080006115,321.80312080006115,0.026808800059370697,323.3112548000645,[-0.24351851851851852],[0.3111111111111111],[1],[0],[0],[1.5199316999642178],['target'],TS,001,2024-10-10_20h10.48.730,visula search,2024.1.5,None,2024-10-10 20h12.40.319911 +0530,
173,0,173,0,323.3361010000808,,323.31392930005677,5,323.3361010000808,323.3361010000808,0.014870100072585046,325.17751050007064,[0.10833333333333334],[0.45740740740740743],[1],[0],[0],[1.84890570002608],['target'],TS,001,2024-10-10_20h10.48.730,visula search,2024.1.5,None,2024-10-10 20h12.40.319911 +0530,
174,0,174,0,325.2028365000151,,325.1804956000997,5,325.2028365000151,325.2028365000151,0.01472720003221184,327.37712920003105,[-0.10092592592592593],[0.06481481481481481],[1],[0],[0],[2.1821760999737307],['target'],TS,001,2024-10-10_20h10.48.730,visula search,2024.1.5,None,2024-10-10 20h12.40.319911 +0530,
175,0,175,0,327.4036423000507,,327.38024239998776,5,327.4036423000507,327.4036423000507,0.015600200043991208,329.07603100000415,[-0.040740740740740744],[0.26666666666666666],[1],[0],[0],[1.6804579999297857],['target'],TS,001,2024-10-10_20h10.48.730,visula search,2024.1.5,None,2024-10-10 20h12.40.319911 +0530,
176,0,176,0,329.1180913000135,,329.0789892000612,10,329.1180913000135,329.1180913000135,0.027131399954669178,331.55874390003737,[0.062037037037037036],[-0.05277777777777778],[1],[0],[0],[2.4529444000218064],['target'],TS,001,2024-10-10_20h10.48.730,visula search,2024.1.5,None,2024-10-10 20h12.40.319911 +0530,
177,0,177,0,331.5832974000368,,331.5613767000614,5,331.5832974000368,331.5832974000368,0.014038899913430214,335.2072521999944,[-0.22777777777777777],[-0.28425925925925927],[1],[0],[0],[3.6320430000778288],['target'],TS,001,2024-10-10_20h10.48.730,visula search,2024.1.5,None,2024-10-10 20h12.40.319911 +0530,
178,0,178,0,335.2342236000113,,335.21036120003555,5,335.2342236000113,335.2342236000113,0.015720799914561212,337.1898638000712,[0.34814814814814815],[-0.4185185185185185],[1],[0],[0],[1.9640628999331966],['target'],TS,001,2024-10-10_20h10.48.730,visula search,2024.1.5,None,2024-10-10 20h12.40.319911 +0530,
179,0,179,0,337.23523520003073,,337.1931891000131,10,337.23523520003073,337.23523520003073,0.03087329992558807,338.8235750000458,[-0.03888888888888889],[-0.09907407407407408],[1],[0],[0],[1.5998812000034377],['target'],TS,001,2024-10-10_20h10.48.730,visula search,2024.1.5,None,2024-10-10 20h12.40.319911 +0530,
180,0,180,0,338.84813450009096,,338.82612159999553,5,338.84813450009096,338.84813450009096,0.013952899957075715,340.70585260004736,[-0.24444444444444444],[0.39166666666666666],[1],[0],[0],[1.8659932999871671],['target'],TS,001,2024-10-10_20h10.48.730,visula search,2024.1.5,None,2024-10-10 20h12.40.319911 +0530,
181,0,181,0,340.73213740007486,,340.7088414999889,5,340.73213740007486,340.73213740007486,0.015279299928806722,341.83872070000507,[0.026851851851851852],[0.20833333333333334],[1],[0],[0],[1.1149075999855995],['target'],TS,001,2024-10-10_20h10.48.730,visula search,2024.1.5,None,2024-10-10 20h12.40.319911 +0530,
182,0,182,0,341.8808786000591,,341.8417219000403,10,341.8808786000591,341.8808786000591,0.026651900028809905,343.3052741000429,[-0.3731481481481482],[-0.1675925925925926],[1],[0],[0],[1.4372075001010671],['target'],TS,001,2024-10-10_20h10.48.730,visula search,2024.1.5,None,2024-10-10 20h12.40.319911 +0530,
183,0,183,0,343.33074920007493,,343.30802130000666,5,343.33074920007493,343.33074920007493,0.014851799933239818,344.18846650002524,[-0.4685185185185185],[-0.24722222222222223],[1],[0],[0],[0.8657361000077799],['target'],TS,001,2024-10-10_20h10.48.730,visula search,2024.1.5,None,2024-10-10 20h12.40.319911 +0530,
184,0,184,0,344.23444660007954,,344.19135720003396,10,344.23444660007954,344.23444660007954,0.028773800004273653,346.8536941000493,[0.3287037037037037],[-0.4388888888888889],[1],[0],[0],[2.633861100068316],['target'],TS,001,2024-10-10_20h10.48.730,visula search,2024.1.5,None,2024-10-10 20h12.40.319911 +0530,
185,0,185,0,346.8796287000878,,346.8563093000557,5,346.8796287000878,346.8796287000878,0.01475229999050498,347.9201980000362,[0.42962962962962964],[-0.3592592592592593],[1],[0],[0],[1.0493841998977587],['target'],TS,001,2024-10-10_20h10.48.730,visula search,2024.1.5,None,2024-10-10 20h12.40.319911 +0530,
186,0,186,0,347.9461275000358,,347.9231055000564,5,347.9461275000358,347.9461275000358,0.015183000010438263,348.8032906000735,[0.11388888888888889],[-0.37592592592592594],[1],[0],[0],[0.8652959000319242],['target'],TS,001,2024-10-10_20h10.48.730,visula search,2024.1.5,None,2024-10-10 20h12.40.319911 +0530,
187,0,187,0,348.85082240006886,,348.8070580000058,10,348.85082240006886,348.85082240006886,0.030185399926267564,350.61955890001263,[-0.30092592592592593],[0.13240740740740742],[1],[0],[0],[1.7826779000461102],['target'],TS,001,2024-10-10_20h10.48.730,visula search,2024.1.5,None,2024-10-10 20h12.40.319911 +0530,
188,0,188,0,350.6602245999966,,350.62206260010134,10,350.6602245999966,350.6602245999966,0.02569849998690188,353.73497360001784,[0.11851851851851852],[-0.43148148148148147],[1],[0],[0],[3.087149600032717],['target'],TS,001,2024-10-10_20h10.48.730,visula search,2024.1.5,None,2024-10-10 20h12.40.319911 +0530,
189,0,189,0,353.76108630001545,,353.7377367001027,5,353.76108630001545,353.76108630001545,0.015132099972106516,355.13459969998803,[-0.10277777777777777],[0.14722222222222223],[1],[0],[0],[1.3818629999877885],['target'],TS,001,2024-10-10_20h10.48.730,visula search,2024.1.5,None,2024-10-10 20h12.40.319911 +0530,
190,0,190,0,355.1595076000085,,355.13729870005045,5,355.1595076000085,355.1595076000085,0.014006500015966594,356.7340154000558,[0.4444444444444444],[0.06296296296296296],[1],[0],[0],[1.5829331999411806],['target'],TS,001,2024-10-10_20h10.48.730,visula search,2024.1.5,None,2024-10-10 20h12.40.319911 +0530,
191,0,191,0,356.78012930008117,,356.7373547999887,10,356.78012930008117,356.78012930008117,0.030129199963994324,358.3168133000145,[0.4824074074074074],[0.012037037037037037],[1],[0],[0],[1.5496916000265628],['target'],TS,001,2024-10-10_20h10.48.730,visula search,2024.1.5,None,2024-10-10 20h12.40.319911 +0530,
192,0,192,0,358.34048530005384,,358.3194445000263,5,358.34048530005384,358.34048530005384,0.013631799956783652,360.03330880007707,[0.08333333333333333],[-0.4324074074074074],[1],[0],[0],[1.7002733000554144],['target'],TS,001,2024-10-10_20h10.48.730,visula search,2024.1.5,None,2024-10-10 20h12.40.319911 +0530,
193,0,193,0,360.06014489999507,,360.0363968000747,5,360.06014489999507,360.06014489999507,0.015728299971669912,361.6324211000465,[-0.08148148148148149],[0.30092592592592593],[1],[0],[0],[1.5806343000149354],['target'],TS,001,2024-10-10_20h10.48.730,visula search,2024.1.5,None,2024-10-10 20h12.40.319911 +0530,
194,0,194,0,361.65723900008015,,361.63523730007,5,361.65723900008015,361.65723900008015,0.01437009999062866,362.8649643000681,[0.03888888888888889],[0.13148148148148148],[1],[0],[0],[1.2155629000626504],['target'],TS,001,2024-10-10_20h10.48.730,visula search,2024.1.5,None,2024-10-10 20h12.40.319911 +0530,
195,0,195,0,362.9082461000653,,362.86849470005836,10,362.9082461000653,362.9082461000653,0.02826729998923838,364.86484739999287,[-0.3037037037037037],[0.23055555555555557],[1],[0],[0],[1.9685490999836475],['target'],TS,001,2024-10-10_20h10.48.730,visula search,2024.1.5,None,2024-10-10 20h12.40.319911 +0530,
196,0,196,0,364.88927300006617,,364.8676948000211,5,364.88927300006617,364.88927300006617,0.013466300093568861,366.5307222000556,[0.36574074074074076],[-0.2657407407407407],[1],[0],[0],[1.6497825999977067],['target'],TS,001,2024-10-10_20h10.48.730,visula search,2024.1.5,None,2024-10-10 20h12.40.319911 +0530,
197,0,197,0,366.57761310006026,,366.5347728000488,10,366.57761310006026,366.57761310006026,0.030117499991320074,370.32994419999886,[0.275],[0.32314814814814813],[1],[0],[0],[3.765469199977815],['target'],TS,001,2024-10-10_20h10.48.730,visula search,2024.1.5,None,2024-10-10 20h12.40.319911 +0530,
198,0,198,0,370.35469680000097,,370.3326323000947,5,370.35469680000097,370.35469680000097,0.014098300016485155,373.2287834000308,[0.425],[-0.18796296296296297],[1],[0],[0],[2.8823164999485016],['target'],TS,001,2024-10-10_20h10.48.730,visula search,2024.1.5,None,2024-10-10 20h12.40.319911 +0530,
199,0,199,0,373.2553916000761,,373.2317226000596,5,373.2553916000761,373.2553916000761,0.015907199936918914,374.84460760001093,[-0.10648148148148148],[-0.26296296296296295],[1],[0],[0],[1.597170399967581],['target'],TS,001,2024-10-10_20h10.48.730,visula search,2024.1.5,None,2024-10-10 20h12.40.319911 +0530,
