pos,corr_resp,trials.thisRepN,trials.thisTrialN,trials.thisN,trials.thisIndex,trials_2.thisRepN,trials_2.thisTrialN,trials_2.thisN,trials_2.thisIndex,thisRow.t,notes,trial.started,fixation.started,line1.started,line_2.started,line_3.started,line_4.started,fixation.stopped,probe.started,key_resp.started,trial.stopped,key_resp.keys,key_resp.corr,key_resp.rt,key_resp.duration,random_2.started,fixation2.started,line11.started,line22.started,line33.started,line44.started,fixation2.stopped,probe2.started,key_resp_2.started,random_2.stopped,key_resp_2.keys,key_resp_2.corr,key_resp_2.rt,key_resp_2.duration,participant,session,date,expName,psychopyVersion,frameRate,expStart
-50,x,0,0,0,0,,,,,0.0455995,,0.0391334,0.0455995,1.0029102,1.0029102,1.0029102,1.0029102,1.0529238,2.0028143,2.0028143,2.8625024,x,1,0.7494745,None,,,,,,,,,,,,,,,I,1,2024-10-17_16h49.22.519,Motor  sequence learning,2024.1.5,None,2024-10-17 16h49.57.031103 +0530
150,v,0,1,1,1,,,,,2.8707803,,2.8653896,2.8707803,3.8689811,3.8689811,3.8689811,3.8689811,3.8856327,4.8683535,4.8683535,5.8870316,v,1,1.0006645,None,,,,,,,,,,,,,,,I,1,2024-10-17_16h49.22.519,Motor  sequence learning,2024.1.5,None,2024-10-17 16h49.57.031103 +0530
50,c,0,2,2,2,,,,,5.901525,,5.8888867,5.901525,6.9011886,6.9011886,6.9011886,6.9011886,6.9011886,7.9010554,7.9010554,8.8347286,c,1,0.9171926,None,,,,,,,,,,,,,,,I,1,2024-10-17_16h49.22.519,Motor  sequence learning,2024.1.5,None,2024-10-17 16h49.57.031103 +0530
-150,z,0,3,3,3,,,,,8.8502305,,8.8367005,8.8502305,9.8499412,9.8499412,9.8499412,9.8499412,9.8499412,10.8497465,10.8497465,11.1507987,z,1,0.289557,None,,,,,,,,,,,,,,,I,1,2024-10-17_16h49.22.519,Motor  sequence learning,2024.1.5,None,2024-10-17 16h49.57.031103 +0530
-50,x,1,0,4,0,,,,,11.1662333,,11.1523347,11.1662333,12.1658376,12.1658376,12.1658376,12.1658376,12.1658376,13.165519,13.165519,13.5165852,x,1,0.3389168,None,,,,,,,,,,,,,,,I,1,2024-10-17_16h49.22.519,Motor  sequence learning,2024.1.5,None,2024-10-17 16h49.57.031103 +0530
150,v,1,1,5,1,,,,,13.5319805,,13.5184783,13.5319805,14.5316571,14.5316571,14.5316571,14.5316571,14.5316571,15.5314807,15.5314807,16.2491413,v,1,0.705721,None,,,,,,,,,,,,,,,I,1,2024-10-17_16h49.22.519,Motor  sequence learning,2024.1.5,None,2024-10-17 16h49.57.031103 +0530
50,c,1,2,6,2,,,,,16.2644737,,16.2508452,16.2644737,17.2642034,17.2642034,17.2642034,17.2642034,17.2642034,18.2638225,18.2638225,18.6987364,c,1,0.4233543,None,,,,,,,,,,,,,,,I,1,2024-10-17_16h49.22.519,Motor  sequence learning,2024.1.5,None,2024-10-17 16h49.57.031103 +0530
-150,z,1,3,7,3,,,,,18.7136729,,18.7012359,18.7136729,19.7134173,19.7134173,19.7134173,19.7134173,19.7134173,20.7129295,20.7129295,21.0139983,z,1,0.2968102,None,,,,,,,,,,,,,,,I,1,2024-10-17_16h49.22.519,Motor  sequence learning,2024.1.5,None,2024-10-17 16h49.57.031103 +0530
-50,x,2,0,8,0,,,,,21.0294546,,21.0155133,21.0294546,22.0291946,22.0291946,22.0291946,22.0291946,22.0291946,23.0290844,23.0290844,23.3804045,x,1,0.3364003,None,,,,,,,,,,,,,,,I,1,2024-10-17_16h49.22.519,Motor  sequence learning,2024.1.5,None,2024-10-17 16h49.57.031103 +0530
150,v,2,1,9,1,,,,,23.3955122,,23.3821176,23.3955122,24.3953757,24.3953757,24.3953757,24.3953757,24.3953757,25.3947949,25.3947949,25.8797806,v,1,0.4738023,None,,,,,,,,,,,,,,,I,1,2024-10-17_16h49.22.519,Motor  sequence learning,2024.1.5,None,2024-10-17 16h49.57.031103 +0530
50,c,2,2,10,2,,,,,25.894612,,25.8822927,25.894612,26.8943043,26.8943043,26.8943043,26.8943043,26.8943043,27.8940273,27.8940273,28.3953913,c,1,0.4880288,None,,,,,,,,,,,,,,,I,1,2024-10-17_16h49.22.519,Motor  sequence learning,2024.1.5,None,2024-10-17 16h49.57.031103 +0530
-150,z,2,3,11,3,,,,,28.4105273,,28.3970839,28.4105273,29.4100491,29.4100491,29.4100491,29.4100491,29.4100491,30.4097421,30.4097421,30.7281839,z,1,0.311385,None,,,,,,,,,,,,,,,I,1,2024-10-17_16h49.22.519,Motor  sequence learning,2024.1.5,None,2024-10-17 16h49.57.031103 +0530
-50,x,3,0,12,0,,,,,30.7430155,,30.7301209,30.7430155,31.7426854,31.7426854,31.7426854,31.7426854,31.7426854,32.7421721,32.7421721,33.3601305,x,1,0.6035938,None,,,,,,,,,,,,,,,I,1,2024-10-17_16h49.22.519,Motor  sequence learning,2024.1.5,None,2024-10-17 16h49.57.031103 +0530
150,v,3,1,13,1,,,,,33.3754037,,33.3631044,33.3754037,34.3751261,34.3751261,34.3751261,34.3751261,34.3751261,35.3748058,35.3748058,36.142833,v,1,0.7631645,None,,,,,,,,,,,,,,,I,1,2024-10-17_16h49.22.519,Motor  sequence learning,2024.1.5,None,2024-10-17 16h49.57.031103 +0530
50,c,3,2,14,2,,,,,36.1578585,,36.1451956,36.1578585,37.1574966,37.1574966,37.1574966,37.1574966,37.1574966,38.1573382,38.1573382,38.7418835,c,1,0.568575,None,,,,,,,,,,,,,,,I,1,2024-10-17_16h49.22.519,Motor  sequence learning,2024.1.5,None,2024-10-17 16h49.57.031103 +0530
-150,z,3,3,15,3,,,,,38.7571675,,38.7437651,38.7571675,39.7570945,39.7570945,39.7570945,39.7570945,39.7570945,40.756455,40.756455,41.1079203,z,1,0.3413285,None,,,,,,,,,,,,,,,I,1,2024-10-17_16h49.22.519,Motor  sequence learning,2024.1.5,None,2024-10-17 16h49.57.031103 +0530
-50,x,4,0,16,0,,,,,41.1227997,,41.1097193,41.1227997,42.1227317,42.1227317,42.1227317,42.1227317,42.1227317,43.1224195,43.1224195,43.6070366,x,1,0.4670164,None,,,,,,,,,,,,,,,I,1,2024-10-17_16h49.22.519,Motor  sequence learning,2024.1.5,None,2024-10-17 16h49.57.031103 +0530
150,v,4,1,17,1,,,,,43.6220302,,43.6090719,43.6220302,44.6215739,44.6215739,44.6215739,44.6215739,44.6215739,45.6218248,45.6218248,46.1727294,v,1,0.5383188,None,,,,,,,,,,,,,,,I,1,2024-10-17_16h49.22.519,Motor  sequence learning,2024.1.5,None,2024-10-17 16h49.57.031103 +0530
50,c,4,2,18,2,,,,,46.1878701,,46.1748788,46.1878701,47.1875799,47.1875799,47.1875799,47.1875799,47.1875799,48.1873997,48.1873997,48.7430149,c,1,0.5470773,None,,,,,,,,,,,,,,,I,1,2024-10-17_16h49.22.519,Motor  sequence learning,2024.1.5,None,2024-10-17 16h49.57.031103 +0530
-150,z,4,3,19,3,,,,,48.7536167,,48.7467228,48.7536167,49.7532095,49.7532095,49.7532095,49.7532095,49.7532095,50.7529548,50.7529548,51.3705655,z,1,0.6011254,None,,,,,,,,,,,,,,,I,1,2024-10-17_16h49.22.519,Motor  sequence learning,2024.1.5,None,2024-10-17 16h49.57.031103 +0530
-50,x,5,0,20,0,,,,,51.3859612,,51.3729172,51.3859612,52.385622,52.385622,52.385622,52.385622,52.385622,53.3853169,53.3853169,54.3534452,x,1,0.9561555,None,,,,,,,,,,,,,,,I,1,2024-10-17_16h49.22.519,Motor  sequence learning,2024.1.5,None,2024-10-17 16h49.57.031103 +0530
150,v,5,1,21,1,,,,,54.3682027,,54.356179,54.3682027,55.3680193,55.3680193,55.3680193,55.3680193,55.3680193,56.3677575,56.3677575,56.9027594,v,1,0.532787,None,,,,,,,,,,,,,,,I,1,2024-10-17_16h49.22.519,Motor  sequence learning,2024.1.5,None,2024-10-17 16h49.57.031103 +0530
50,c,5,2,22,2,,,,,56.9175818,,56.9046713,56.9175818,57.9171884,57.9171884,57.9171884,57.9171884,57.9171884,58.9168304,58.9168304,59.4179868,c,1,0.4857667,None,,,,,,,,,,,,,,,I,1,2024-10-17_16h49.22.519,Motor  sequence learning,2024.1.5,None,2024-10-17 16h49.57.031103 +0530
-50,x,6,0,24,0,,,,,61.7660354,,61.7541951,61.7660354,62.765873,62.765873,62.765873,62.765873,62.765873,63.7653174,63.7653174,64.3496629,x,1,0.5730016,None,,,,,,,,,,,,,,,I,1,2024-10-17_16h49.22.519,Motor  sequence learning,2024.1.5,None,2024-10-17 16h49.57.031103 +0530
150,v,6,1,25,1,,,,,64.3650003,,64.3514962,64.3650003,65.3646762,65.3646762,65.3646762,65.3646762,65.3646762,66.3642797,66.3642797,67.1323934,v,1,0.7530279,None,,,,,,,,,,,,,,,I,1,2024-10-17_16h49.22.519,Motor  sequence learning,2024.1.5,None,2024-10-17 16h49.57.031103 +0530
50,c,6,2,26,2,,,,,67.1474241,,67.1342144,67.1474241,68.1473369,68.1473369,68.1473369,68.1473369,68.1473369,69.1465531,69.1465531,69.7814691,c,1,0.6329538,None,,,,,,,,,,,,,,,I,1,2024-10-17_16h49.22.519,Motor  sequence learning,2024.1.5,None,2024-10-17 16h49.57.031103 +0530
-150,z,6,3,27,3,,,,,69.7964144,,69.7841853,69.7964144,70.7960322,70.7960322,70.7960322,70.7960322,70.7960322,71.7958419,71.7958419,72.4632547,z,1,0.654199,None,,,,,,,,,,,,,,,I,1,2024-10-17_16h49.22.519,Motor  sequence learning,2024.1.5,None,2024-10-17 16h49.57.031103 +0530
-50,x,7,0,28,0,,,,,72.4787982,,72.4649583,72.4787982,73.478622,73.478622,73.478622,73.478622,73.478622,74.4781529,74.4781529,74.8626404,x,1,0.3764761,None,,,,,,,,,,,,,,,I,1,2024-10-17_16h49.22.519,Motor  sequence learning,2024.1.5,None,2024-10-17 16h49.57.031103 +0530
150,v,7,1,29,1,,,,,74.8780796,,74.8643163,74.8780796,75.8782643,75.8782643,75.8782643,75.8782643,75.8782643,76.8776946,76.8776946,77.4294383,v,1,0.5496035,None,,,,,,,,,,,,,,,I,1,2024-10-17_16h49.22.519,Motor  sequence learning,2024.1.5,None,2024-10-17 16h49.57.031103 +0530
50,c,7,2,30,2,,,,,77.4438785,,77.4312454,77.4438785,78.443762,78.443762,78.443762,78.443762,78.443762,79.4432463,79.4432463,79.8781024,c,1,0.4270226,None,,,,,,,,,,,,,,,I,1,2024-10-17_16h49.22.519,Motor  sequence learning,2024.1.5,None,2024-10-17 16h49.57.031103 +0530
-150,z,7,3,31,3,,,,,79.8931147,,79.8797865,79.8931147,80.8930136,80.8930136,80.8930136,80.8930136,80.8930136,81.8923964,81.8923964,82.5109546,z,1,0.6073878,None,,,,,,,,,,,,,,,I,1,2024-10-17_16h49.22.519,Motor  sequence learning,2024.1.5,None,2024-10-17 16h49.57.031103 +0530
-50,x,8,0,32,0,,,,,82.5255867,,82.514027,82.5255867,83.5256404,83.5256404,83.5256404,83.5256404,83.5256404,84.5248065,84.5248065,84.8598148,x,1,0.3254913,None,,,,,,,,,,,,,,,I,1,2024-10-17_16h49.22.519,Motor  sequence learning,2024.1.5,None,2024-10-17 16h49.57.031103 +0530
150,v,8,1,33,1,,,,,84.8748307,,84.8620222,84.8748307,85.8743301,85.8743301,85.8743301,85.8743301,85.8743301,86.8740066,86.8740066,87.4252411,v,1,0.542555,None,,,,,,,,,,,,,,,I,1,2024-10-17_16h49.22.519,Motor  sequence learning,2024.1.5,None,2024-10-17 16h49.57.031103 +0530
50,c,8,2,34,2,,,,,87.4404628,,87.4280711,87.4404628,88.4401425,88.4401425,88.4401425,88.4401425,88.4401425,89.4397999,89.4397999,89.8081699,c,1,0.3554303,None,,,,,,,,,,,,,,,I,1,2024-10-17_16h49.22.519,Motor  sequence learning,2024.1.5,None,2024-10-17 16h49.57.031103 +0530
-150,z,8,3,35,3,,,,,89.8229898,,89.8112339,89.8229898,90.8226787,90.8226787,90.8226787,90.8226787,90.8226787,91.8223971,91.8223971,92.6404613,z,1,0.8070789,None,,,,,,,,,,,,,,,I,1,2024-10-17_16h49.22.519,Motor  sequence learning,2024.1.5,None,2024-10-17 16h49.57.031103 +0530
-50,x,9,0,36,0,,,,,92.6553545,,92.6421456,92.6553545,93.6549875,93.6549875,93.6549875,93.6549875,93.6549875,94.6546829,94.6546829,95.1395995,x,1,0.4700745,None,,,,,,,,,,,,,,,I,1,2024-10-17_16h49.22.519,Motor  sequence learning,2024.1.5,None,2024-10-17 16h49.57.031103 +0530
150,v,9,1,37,1,,,,,95.1546727,,95.1420653,95.1546727,96.1545524,96.1545524,96.1545524,96.1545524,96.1545524,97.1540212,97.1540212,97.5727763,v,1,0.4162037,None,,,,,,,,,,,,,,,I,1,2024-10-17_16h49.22.519,Motor  sequence learning,2024.1.5,None,2024-10-17 16h49.57.031103 +0530
50,c,9,2,38,2,,,,,97.5871652,,97.5751142,97.5871652,98.5868488,98.5868488,98.5868488,98.5868488,98.5868488,99.5864219,99.5864219,100.0208329,c,1,0.4171374,None,,,,,,,,,,,,,,,I,1,2024-10-17_16h49.22.519,Motor  sequence learning,2024.1.5,None,2024-10-17 16h49.57.031103 +0530
-150,z,9,3,39,3,,,,,100.036334,,100.0224662,100.036334,101.0358427,101.0358427,101.0358427,101.0358427,101.0358427,102.0356116,102.0356116,102.6375278,z,1,0.5908867,None,,,,,,,,,,,,,,,I,1,2024-10-17_16h49.22.519,Motor  sequence learning,2024.1.5,None,2024-10-17 16h49.57.031103 +0530
-50,x,10,0,40,0,,,,,102.6520366,,102.6405837,102.6520366,103.6518739,103.6518739,103.6518739,103.6518739,103.6518739,104.6514605,104.6514605,105.1030898,x,1,0.4486022,None,,,,,,,,,,,,,,,I,1,2024-10-17_16h49.22.519,Motor  sequence learning,2024.1.5,None,2024-10-17 16h49.57.031103 +0530
150,v,10,1,41,1,,,,,105.1178562,,105.1053663,105.1178562,106.1175363,106.1175363,106.1175363,106.1175363,106.1175363,107.1172539,107.1172539,107.6021149,v,1,0.4828982,None,,,,,,,,,,,,,,,I,1,2024-10-17_16h49.22.519,Motor  sequence learning,2024.1.5,None,2024-10-17 16h49.57.031103 +0530
50,c,10,2,42,2,,,,,107.616989,,107.604173,107.616989,108.6167229,108.6167229,108.6167229,108.6167229,108.6167229,109.6164179,109.6164179,110.1843585,c,1,0.5505153,None,,,,,,,,,,,,,,,I,1,2024-10-17_16h49.22.519,Motor  sequence learning,2024.1.5,None,2024-10-17 16h49.57.031103 +0530
-150,z,10,3,43,3,,,,,110.1995272,,110.1863505,110.1995272,111.199569,111.199569,111.199569,111.199569,111.199569,112.2013131,112.2013131,112.850029,z,1,0.636552,None,,,,,,,,,,,,,,,I,1,2024-10-17_16h49.22.519,Motor  sequence learning,2024.1.5,None,2024-10-17 16h49.57.031103 +0530
-50,x,11,0,44,0,,,,,112.8653333,,112.8521312,112.8653333,113.864986,113.864986,113.864986,113.864986,113.864986,114.8645474,114.8645474,115.2491315,x,1,0.3831755,None,,,,,,,,,,,,,,,I,1,2024-10-17_16h49.22.519,Motor  sequence learning,2024.1.5,None,2024-10-17 16h49.57.031103 +0530
150,v,11,1,45,1,,,,,115.2644273,,115.2506569,115.2644273,116.2644332,116.2644332,116.2644332,116.2644332,116.2644332,117.2640185,117.2640185,117.7317597,v,1,0.4518872,None,,,,,,,,,,,,,,,I,1,2024-10-17_16h49.22.519,Motor  sequence learning,2024.1.5,None,2024-10-17 16h49.57.031103 +0530
50,c,11,2,46,2,,,,,117.7470702,,117.7333756,117.7470702,118.7468679,118.7468679,118.7468679,118.7468679,118.7468679,119.7463471,119.7463471,120.2644678,c,1,0.5085881,None,,,,,,,,,,,,,,,I,1,2024-10-17_16h49.22.519,Motor  sequence learning,2024.1.5,None,2024-10-17 16h49.57.031103 +0530
-150,z,11,3,47,3,,,,,120.2793967,,120.2662175,120.2793967,121.2790983,121.2790983,121.2790983,121.2790983,121.2790983,122.2787547,122.2787547,122.8966678,z,1,0.6070039,None,,,,,,,,,,,,,,,I,1,2024-10-17_16h49.22.519,Motor  sequence learning,2024.1.5,None,2024-10-17 16h49.57.031103 +0530
-50,x,12,0,48,0,,,,,122.9119339,,122.8989846,122.9119339,123.9115992,123.9115992,123.9115992,123.9115992,123.9115992,124.9111597,124.9111597,125.1632215,x,1,0.2459948,None,,,,,,,,,,,,,,,I,1,2024-10-17_16h49.22.519,Motor  sequence learning,2024.1.5,None,2024-10-17 16h49.57.031103 +0530
150,v,12,1,49,1,,,,,125.1776768,,125.1661304,125.1776768,126.1773674,126.1773674,126.1773674,126.1773674,126.1773674,127.177035,127.177035,127.6622672,v,1,0.4789612,None,,,,,,,,,,,,,,,I,1,2024-10-17_16h49.22.519,Motor  sequence learning,2024.1.5,None,2024-10-17 16h49.57.031103 +0530
50,c,12,2,50,2,,,,,127.6771303,,127.6642102,127.6771303,128.6764481,128.6764481,128.6764481,128.6764481,128.6764481,129.676179,129.676179,130.2448458,c,1,0.5653256,None,,,,,,,,,,,,,,,I,1,2024-10-17_16h49.22.519,Motor  sequence learning,2024.1.5,None,2024-10-17 16h49.57.031103 +0530
-150,z,12,3,51,3,,,,,130.2593188,,130.2473332,130.2593188,131.2591486,131.2591486,131.2591486,131.2591486,131.2591486,132.2586643,132.2586643,132.8281873,z,1,0.5612226,None,,,,,,,,,,,,,,,I,1,2024-10-17_16h49.22.519,Motor  sequence learning,2024.1.5,None,2024-10-17 16h49.57.031103 +0530
-50,x,13,0,52,0,,,,,132.841829,,132.8315074,132.841829,133.8414972,133.8414972,133.8414972,133.8414972,133.8414972,134.8411138,134.8411138,135.2289569,x,1,0.3815936,None,,,,,,,,,,,,,,,I,1,2024-10-17_16h49.22.519,Motor  sequence learning,2024.1.5,None,2024-10-17 16h49.57.031103 +0530
150,v,13,1,53,1,,,,,135.2411373,,135.232837,135.2411373,136.2406618,136.2406618,136.2406618,136.2406618,136.2406618,137.2403581,137.2403581,137.8251224,v,1,0.5706988,None,,,,,,,,,,,,,,,I,1,2024-10-17_16h49.22.519,Motor  sequence learning,2024.1.5,None,2024-10-17 16h49.57.031103 +0530
50,c,13,2,54,2,,,,,137.8401148,,137.8268346,137.8401148,138.8398323,138.8398323,138.8398323,138.8398323,138.8398323,139.8398958,139.8398958,140.2906664,c,1,0.4492732,None,,,,,,,,,,,,,,,I,1,2024-10-17_16h49.22.519,Motor  sequence learning,2024.1.5,None,2024-10-17 16h49.57.031103 +0530
-150,z,13,3,55,3,,,,,140.3060713,,140.2919199,140.3060713,141.3056436,141.3056436,141.3056436,141.3056436,141.3056436,142.3053214,142.3053214,142.6074354,z,1,0.2982221,None,,,,,,,,,,,,,,,I,1,2024-10-17_16h49.22.519,Motor  sequence learning,2024.1.5,None,2024-10-17 16h49.57.031103 +0530
-50,x,14,0,56,0,,,,,142.6218907,,142.6093812,142.6218907,143.6218527,143.6218527,143.6218527,143.6218527,143.6218527,144.6213086,144.6213086,144.956011,x,1,0.3279017,None,,,,,,,,,,,,,,,I,1,2024-10-17_16h49.22.519,Motor  sequence learning,2024.1.5,None,2024-10-17 16h49.57.031103 +0530
150,v,14,1,57,1,,,,,144.9711526,,144.957827,144.9711526,145.9709074,145.9709074,145.9709074,145.9709074,145.9709074,146.9704085,146.9704085,147.6049347,v,1,0.6173094,None,,,,,,,,,,,,,,,I,1,2024-10-17_16h49.22.519,Motor  sequence learning,2024.1.5,None,2024-10-17 16h49.57.031103 +0530
50,c,14,2,58,2,,,,,147.620311,,147.6066815,147.620311,148.6199706,148.6199706,148.6199706,148.6199706,148.6199706,149.6195562,149.6195562,150.0541466,c,1,0.4172759,None,,,,,,,,,,,,,,,I,1,2024-10-17_16h49.22.519,Motor  sequence learning,2024.1.5,None,2024-10-17 16h49.57.031103 +0530
-150,z,14,3,59,3,,,,,150.0692942,,150.0562815,150.0692942,151.0691972,151.0691972,151.0691972,151.0691972,151.0691972,152.0687546,152.0687546,152.5706811,z,1,0.5002045,None,,,,,,,,,,,,,,,I,1,2024-10-17_16h49.22.519,Motor  sequence learning,2024.1.5,None,2024-10-17 16h49.57.031103 +0530
-50,x,15,0,60,0,,,,,152.5850725,,152.572372,152.5850725,153.5848889,153.5848889,153.5848889,153.5848889,153.5848889,154.5845326,154.5845326,155.6354868,x,1,1.0386104,None,,,,,,,,,,,,,,,I,1,2024-10-17_16h49.22.519,Motor  sequence learning,2024.1.5,None,2024-10-17 16h49.57.031103 +0530
150,v,15,1,61,1,,,,,155.6508003,,155.6387123,155.6508003,156.6505187,156.6505187,156.6505187,156.6505187,156.6505187,157.6502159,157.6502159,158.3012732,v,1,0.6406273,None,,,,,,,,,,,,,,,I,1,2024-10-17_16h49.22.519,Motor  sequence learning,2024.1.5,None,2024-10-17 16h49.57.031103 +0530
50,c,15,2,62,2,,,,,158.3164989,,158.3034292,158.3164989,159.3162818,159.3162818,159.3162818,159.3162818,159.3162818,160.3159882,160.3159882,160.7838875,c,1,0.4598413,None,,,,,,,,,,,,,,,I,1,2024-10-17_16h49.22.519,Motor  sequence learning,2024.1.5,None,2024-10-17 16h49.57.031103 +0530
-150,z,15,3,63,3,,,,,160.7991475,,160.786429,160.7991475,161.7987643,161.7987643,161.7987643,161.7987643,161.7987643,162.7983746,162.7983746,163.3829228,z,1,0.5754774,None,,,,,,,,,,,,,,,I,1,2024-10-17_16h49.22.519,Motor  sequence learning,2024.1.5,None,2024-10-17 16h49.57.031103 +0530
-50,x,16,0,64,0,,,,,163.3982794,,163.3851295,163.3982794,164.3979507,164.3979507,164.3979507,164.3979507,164.3979507,165.3976048,165.3976048,166.0326303,x,1,0.6260511,None,,,,,,,,,,,,,,,I,1,2024-10-17_16h49.22.519,Motor  sequence learning,2024.1.5,None,2024-10-17 16h49.57.031103 +0530
150,v,16,1,65,1,,,,,166.0474187,,166.0348863,166.0474187,167.0470186,167.0470186,167.0470186,167.0470186,167.0470186,168.046683,168.046683,168.515008,v,1,0.4502617,None,,,,,,,,,,,,,,,I,1,2024-10-17_16h49.22.519,Motor  sequence learning,2024.1.5,None,2024-10-17 16h49.57.031103 +0530
50,c,16,2,66,2,,,,,168.5299153,,168.5174656,168.5299153,169.5294412,169.5294412,169.5294412,169.5294412,169.5294412,170.5291306,170.5291306,171.0471798,c,1,0.5052002,None,,,,,,,,,,,,,,,I,1,2024-10-17_16h49.22.519,Motor  sequence learning,2024.1.5,None,2024-10-17 16h49.57.031103 +0530
-150,z,16,3,67,3,,,,,171.0622911,,171.0489467,171.0622911,172.0620106,172.0620106,172.0620106,172.0620106,172.0620106,173.0616245,173.0616245,173.4798292,z,1,0.4138124,None,,,,,,,,,,,,,,,I,1,2024-10-17_16h49.22.519,Motor  sequence learning,2024.1.5,None,2024-10-17 16h49.57.031103 +0530
-50,x,17,0,68,0,,,,,173.494829,,173.4816603,173.494829,174.4945121,174.4945121,174.4945121,174.4945121,174.4945121,175.4942274,175.4942274,175.8791426,x,1,0.3675566,None,,,,,,,,,,,,,,,I,1,2024-10-17_16h49.22.519,Motor  sequence learning,2024.1.5,None,2024-10-17 16h49.57.031103 +0530
150,v,17,1,69,1,,,,,175.8940749,,175.8814873,175.8940749,176.8940061,176.8940061,176.8940061,176.8940061,176.8940061,177.893372,177.893372,178.4121866,v,1,0.5018234,None,,,,,,,,,,,,,,,I,1,2024-10-17_16h49.22.519,Motor  sequence learning,2024.1.5,None,2024-10-17 16h49.57.031103 +0530
50,c,17,2,70,2,,,,,178.4264501,,178.413986,178.4264501,179.4262175,179.4262175,179.4262175,179.4262175,179.4262175,180.4259762,180.4259762,181.1435819,c,1,0.7062602,None,,,,,,,,,,,,,,,I,1,2024-10-17_16h49.22.519,Motor  sequence learning,2024.1.5,None,2024-10-17 16h49.57.031103 +0530
-150,z,17,3,71,3,,,,,181.1589329,,181.1455797,181.1589329,182.1588683,182.1588683,182.1588683,182.1588683,182.1588683,183.1582054,183.1582054,183.5765948,z,1,0.4157518,None,,,,,,,,,,,,,,,I,1,2024-10-17_16h49.22.519,Motor  sequence learning,2024.1.5,None,2024-10-17 16h49.57.031103 +0530
-50,x,18,0,72,0,,,,,183.5914573,,183.5784806,183.5914573,184.5910912,184.5910912,184.5910912,184.5910912,184.5910912,185.590601,185.590601,185.892383,x,1,0.2984854,None,,,,,,,,,,,,,,,I,1,2024-10-17_16h49.22.519,Motor  sequence learning,2024.1.5,None,2024-10-17 16h49.57.031103 +0530
150,v,18,1,73,1,,,,,185.9072679,,185.8941173,185.9072679,186.9070147,186.9070147,186.9070147,186.9070147,186.9070147,187.9067073,187.9067073,188.3913759,v,1,0.4677378,None,,,,,,,,,,,,,,,I,1,2024-10-17_16h49.22.519,Motor  sequence learning,2024.1.5,None,2024-10-17 16h49.57.031103 +0530
50,c,18,2,74,2,,,,,188.4061936,,188.3942889,188.4061936,189.406065,189.406065,189.406065,189.406065,189.406065,190.4059071,190.4059071,190.8404641,c,1,0.4261325,None,,,,,,,,,,,,,,,I,1,2024-10-17_16h49.22.519,Motor  sequence learning,2024.1.5,None,2024-10-17 16h49.57.031103 +0530
-150,z,18,3,75,3,,,,,190.8557255,,190.8420303,190.8557255,191.8554327,191.8554327,191.8554327,191.8554327,191.8554327,192.8553762,192.8553762,193.2905863,z,1,0.4174858,None,,,,,,,,,,,,,,,I,1,2024-10-17_16h49.22.519,Motor  sequence learning,2024.1.5,None,2024-10-17 16h49.57.031103 +0530
-50,x,19,0,76,0,,,,,193.3049061,,193.2923821,193.3049061,194.3044717,194.3044717,194.3044717,194.3044717,194.3044717,195.3042453,195.3042453,195.8894206,x,1,0.5723909,None,,,,,,,,,,,,,,,I,1,2024-10-17_16h49.22.519,Motor  sequence learning,2024.1.5,None,2024-10-17 16h49.57.031103 +0530
150,v,19,1,77,1,,,,,195.9039062,,195.891113,195.9039062,196.9037533,196.9037533,196.9037533,196.9037533,196.9037533,197.9032656,197.9032656,198.6044514,v,1,0.6972626,None,,,,,,,,,,,,,,,I,1,2024-10-17_16h49.22.519,Motor  sequence learning,2024.1.5,None,2024-10-17 16h49.57.031103 +0530
50,c,19,2,78,2,,,,,198.6196351,,198.6068863,198.6196351,199.6194584,199.6194584,199.6194584,199.6194584,199.6194584,200.6192593,200.6192593,201.0371776,c,1,0.4160936,None,,,,,,,,,,,,,,,I,1,2024-10-17_16h49.22.519,Motor  sequence learning,2024.1.5,None,2024-10-17 16h49.57.031103 +0530
-150,z,19,3,79,3,,,,,201.0524049,,201.0389444,201.0524049,202.0519322,202.0519322,202.0519322,202.0519322,202.0519322,203.0542129,203.0542129,203.4865778,z,1,0.4198771,None,,,,,,,,,,,,,,,I,1,2024-10-17_16h49.22.519,Motor  sequence learning,2024.1.5,None,2024-10-17 16h49.57.031103 +0530
-50,x,20,0,80,0,,,,,203.5014424,,203.4890521,203.5014424,204.5010896,204.5010896,204.5010896,204.5010896,204.5010896,205.5006588,205.5006588,206.2187008,x,1,0.7006234,None,,,,,,,,,,,,,,,I,1,2024-10-17_16h49.22.519,Motor  sequence learning,2024.1.5,None,2024-10-17 16h49.57.031103 +0530
150,v,20,1,81,1,,,,,206.2336464,,206.2211298,206.2336464,207.2335591,207.2335591,207.2335591,207.2335591,207.2335591,208.233264,208.233264,208.7182555,v,1,0.4764019,None,,,,,,,,,,,,,,,I,1,2024-10-17_16h49.22.519,Motor  sequence learning,2024.1.5,None,2024-10-17 16h49.57.031103 +0530
50,c,20,2,82,2,,,,,208.7329063,,208.7205257,208.7329063,209.7326088,209.7326088,209.7326088,209.7326088,209.7326088,210.7322672,210.7322672,211.0835508,c,1,0.3384212,None,,,,,,,,,,,,,,,I,1,2024-10-17_16h49.22.519,Motor  sequence learning,2024.1.5,None,2024-10-17 16h49.57.031103 +0530
-150,z,20,3,83,3,,,,,211.0987573,,211.0862599,211.0987573,212.0987079,212.0987079,212.0987079,212.0987079,212.0987079,213.0981356,213.0981356,213.5996314,z,1,0.4934176,None,,,,,,,,,,,,,,,I,1,2024-10-17_16h49.22.519,Motor  sequence learning,2024.1.5,None,2024-10-17 16h49.57.031103 +0530
-50,x,21,0,84,0,,,,,213.6148038,,213.6020086,213.6148038,214.6143279,214.6143279,214.6143279,214.6143279,214.6143279,215.6140955,215.6140955,216.1321352,x,1,0.5064604,None,,,,,,,,,,,,,,,I,1,2024-10-17_16h49.22.519,Motor  sequence learning,2024.1.5,None,2024-10-17 16h49.57.031103 +0530
150,v,21,1,85,1,,,,,216.1473024,,216.1341205,216.1473024,217.1468583,217.1468583,217.1468583,217.1468583,217.1468583,218.1465218,218.1465218,218.79822,v,1,0.6493297,None,,,,,,,,,,,,,,,I,1,2024-10-17_16h49.22.519,Motor  sequence learning,2024.1.5,None,2024-10-17 16h49.57.031103 +0530
50,c,21,2,86,2,,,,,218.8130422,,218.7998903,218.8130422,219.8126801,219.8126801,219.8126801,219.8126801,219.8126801,220.8122342,220.8122342,221.2971918,c,1,0.4816726,None,,,,,,,,,,,,,,,I,1,2024-10-17_16h49.22.519,Motor  sequence learning,2024.1.5,None,2024-10-17 16h49.57.031103 +0530
-150,z,21,3,87,3,,,,,221.3121112,,221.2992799,221.3121112,222.3117338,222.3117338,222.3117338,222.3117338,222.3117338,223.3113365,223.3113365,223.7297044,z,1,0.4160902,None,,,,,,,,,,,,,,,I,1,2024-10-17_16h49.22.519,Motor  sequence learning,2024.1.5,None,2024-10-17 16h49.57.031103 +0530
-50,x,22,0,88,0,,,,,223.7445843,,223.7320608,223.7445843,224.7444116,224.7444116,224.7444116,224.7444116,224.7444116,225.7441552,225.7441552,226.2787113,x,1,0.5186909,None,,,,,,,,,,,,,,,I,1,2024-10-17_16h49.22.519,Motor  sequence learning,2024.1.5,None,2024-10-17 16h49.57.031103 +0530
150,v,22,1,89,1,,,,,226.2940259,,226.2803323,226.2940259,227.2936789,227.2936789,227.2936789,227.2936789,227.2936789,228.2933672,228.2933672,228.9951185,v,1,0.6947679,None,,,,,,,,,,,,,,,I,1,2024-10-17_16h49.22.519,Motor  sequence learning,2024.1.5,None,2024-10-17 16h49.57.031103 +0530
50,c,22,2,90,2,,,,,229.0093552,,228.9978688,229.0093552,230.0089967,230.0089967,230.0089967,230.0089967,230.0089967,231.0087371,231.0087371,231.4938681,c,1,0.4819684,None,,,,,,,,,,,,,,,I,1,2024-10-17_16h49.22.519,Motor  sequence learning,2024.1.5,None,2024-10-17 16h49.57.031103 +0530
-150,z,22,3,91,3,,,,,231.5085826,,231.4956533,231.5085826,232.5084817,232.5084817,232.5084817,232.5084817,232.5084817,233.5079214,233.5079214,234.0092731,z,1,0.4877075,None,,,,,,,,,,,,,,,I,1,2024-10-17_16h49.22.519,Motor  sequence learning,2024.1.5,None,2024-10-17 16h49.57.031103 +0530
-50,x,23,0,92,0,,,,,234.0243646,,234.0111975,234.0243646,235.0243157,235.0243157,235.0243157,235.0243157,235.0243157,236.0238591,236.0238591,236.3581518,x,1,0.3199012,None,,,,,,,,,,,,,,,I,1,2024-10-17_16h49.22.519,Motor  sequence learning,2024.1.5,None,2024-10-17 16h49.57.031103 +0530
150,v,23,1,93,1,,,,,236.3740983,,236.3597611,236.3740983,237.3732947,237.3732947,237.3732947,237.3732947,237.3732947,238.3729358,238.3729358,238.8411736,v,1,0.455889,None,,,,,,,,,,,,,,,I,1,2024-10-17_16h49.22.519,Motor  sequence learning,2024.1.5,None,2024-10-17 16h49.57.031103 +0530
50,c,23,2,94,2,,,,,238.8560673,,238.8430994,238.8560673,239.8559842,239.8559842,239.8559842,239.8559842,239.8559842,240.855498,240.855498,241.2566643,c,1,0.3979544,None,,,,,,,,,,,,,,,I,1,2024-10-17_16h49.22.519,Motor  sequence learning,2024.1.5,None,2024-10-17 16h49.57.031103 +0530
-150,z,23,3,95,3,,,,,241.2719538,,241.2594059,241.2719538,242.2715622,242.2715622,242.2715622,242.2715622,242.2715622,243.2711663,243.2711663,243.8395035,z,1,0.5636512,None,,,,,,,,,,,,,,,I,1,2024-10-17_16h49.22.519,Motor  sequence learning,2024.1.5,None,2024-10-17 16h49.57.031103 +0530
-50,x,24,0,96,0,,,,,243.8544058,,243.8419165,243.8544058,244.8540227,244.8540227,244.8540227,244.8540227,244.8540227,245.8535971,245.8535971,246.3550627,x,1,0.4853348,None,,,,,,,,,,,,,,,I,1,2024-10-17_16h49.22.519,Motor  sequence learning,2024.1.5,None,2024-10-17 16h49.57.031103 +0530
150,v,24,1,97,1,,,,,246.3702588,,246.3576763,246.3702588,247.3699426,247.3699426,247.3699426,247.3699426,247.3699426,248.3698759,248.3698759,248.9041882,v,1,0.5314555,None,,,,,,,,,,,,,,,I,1,2024-10-17_16h49.22.519,Motor  sequence learning,2024.1.5,None,2024-10-17 16h49.57.031103 +0530
50,c,24,2,98,2,,,,,248.9192358,,248.9066052,248.9192358,249.9190701,249.9190701,249.9190701,249.9190701,249.9190701,250.9187782,250.9187782,251.4204008,c,1,0.4857841,None,,,,,,,,,,,,,,,I,1,2024-10-17_16h49.22.519,Motor  sequence learning,2024.1.5,None,2024-10-17 16h49.57.031103 +0530
-150,z,24,3,99,3,,,,,251.4352029,,251.4226344,251.4352029,252.4349946,252.4349946,252.4349946,252.4349946,252.4349946,253.4348582,253.4348582,254.2362016,z,1,0.7927982,None,,,,,,,,,,,,,,,I,1,2024-10-17_16h49.22.519,Motor  sequence learning,2024.1.5,None,2024-10-17 16h49.57.031103 +0530
-50,x,25,0,100,0,,,,,254.2509285,,254.2379136,254.2509285,255.2507811,255.2507811,255.2507811,255.2507811,255.2507811,256.250305,256.250305,256.6857293,x,1,0.4265289,None,,,,,,,,,,,,,,,I,1,2024-10-17_16h49.22.519,Motor  sequence learning,2024.1.5,None,2024-10-17 16h49.57.031103 +0530
150,v,25,1,101,1,,,,,256.7001578,,256.6883385,256.7001578,257.699923,257.699923,257.699923,257.699923,257.699923,258.6994162,258.6994162,259.3503625,v,1,0.6390956,None,,,,,,,,,,,,,,,I,1,2024-10-17_16h49.22.519,Motor  sequence learning,2024.1.5,None,2024-10-17 16h49.57.031103 +0530
50,c,25,2,102,2,,,,,259.3658654,,259.3522491,259.3658654,260.3657128,260.3657128,260.3657128,260.3657128,260.3657128,261.3651179,261.3651179,261.9336119,c,1,0.5665723,None,,,,,,,,,,,,,,,I,1,2024-10-17_16h49.22.519,Motor  sequence learning,2024.1.5,None,2024-10-17 16h49.57.031103 +0530
-150,z,25,3,103,3,,,,,261.9483267,,261.9351677,261.9483267,262.9480223,262.9480223,262.9480223,262.9480223,262.9480223,263.9477061,263.9477061,264.8655215,z,1,0.9088847,None,,,,,,,,,,,,,,,I,1,2024-10-17_16h49.22.519,Motor  sequence learning,2024.1.5,None,2024-10-17 16h49.57.031103 +0530
-50,x,26,0,104,0,,,,,264.8808074,,264.867209,264.8808074,265.8804466,265.8804466,265.8804466,265.8804466,265.8804466,266.8800141,266.8800141,267.281123,x,1,0.3977949,None,,,,,,,,,,,,,,,I,1,2024-10-17_16h49.22.519,Motor  sequence learning,2024.1.5,None,2024-10-17 16h49.57.031103 +0530
150,v,26,1,105,1,,,,,267.2965254,,267.2829347,267.2965254,268.2962115,268.2962115,268.2962115,268.2962115,268.2962115,269.2957616,269.2957616,270.1807735,v,1,0.8689787,None,,,,,,,,,,,,,,,I,1,2024-10-17_16h49.22.519,Motor  sequence learning,2024.1.5,None,2024-10-17 16h49.57.031103 +0530
50,c,26,2,106,2,,,,,270.1957009,,270.1829503,270.1957009,271.19541,271.19541,271.19541,271.19541,271.19541,272.1951828,272.1951828,272.6465144,c,1,0.4391167,None,,,,,,,,,,,,,,,I,1,2024-10-17_16h49.22.519,Motor  sequence learning,2024.1.5,None,2024-10-17 16h49.57.031103 +0530
-150,z,26,3,107,3,,,,,272.6615965,,272.6483056,272.6615965,273.6613944,273.6613944,273.6613944,273.6613944,273.6613944,274.6608112,274.6608112,275.2121378,z,1,0.5354617,None,,,,,,,,,,,,,,,I,1,2024-10-17_16h49.22.519,Motor  sequence learning,2024.1.5,None,2024-10-17 16h49.57.031103 +0530
-50,x,27,0,108,0,,,,,275.2272462,,275.2143046,275.2272462,276.2272013,276.2272013,276.2272013,276.2272013,276.2272013,277.2267136,277.2267136,277.62797,x,1,0.3954938,None,,,,,,,,,,,,,,,I,1,2024-10-17_16h49.22.519,Motor  sequence learning,2024.1.5,None,2024-10-17 16h49.57.031103 +0530
150,v,27,1,109,1,,,,,277.6429056,,277.6296998,277.6429056,278.642646,278.642646,278.642646,278.642646,278.642646,279.6423026,279.6423026,280.5102363,v,1,0.852991,None,,,,,,,,,,,,,,,I,1,2024-10-17_16h49.22.519,Motor  sequence learning,2024.1.5,None,2024-10-17 16h49.57.031103 +0530
50,c,27,2,110,2,,,,,280.525414,,280.5130057,280.525414,281.5249987,281.5249987,281.5249987,281.5249987,281.5249987,282.5246723,282.5246723,282.9929096,c,1,0.4624595,None,,,,,,,,,,,,,,,I,1,2024-10-17_16h49.22.519,Motor  sequence learning,2024.1.5,None,2024-10-17 16h49.57.031103 +0530
-150,z,27,3,111,3,,,,,283.0077884,,282.9957533,283.0077884,284.0074875,284.0074875,284.0074875,284.0074875,284.0074875,285.0072644,285.0072644,285.5588081,z,1,0.5377697,None,,,,,,,,,,,,,,,I,1,2024-10-17_16h49.22.519,Motor  sequence learning,2024.1.5,None,2024-10-17 16h49.57.031103 +0530
-50,x,28,0,112,0,,,,,285.5735822,,285.5619273,285.5735822,286.573293,286.573293,286.573293,286.573293,286.573293,287.5731351,287.5731351,288.0740793,x,1,0.4890963,None,,,,,,,,,,,,,,,I,1,2024-10-17_16h49.22.519,Motor  sequence learning,2024.1.5,None,2024-10-17 16h49.57.031103 +0530
150,v,28,1,113,1,,,,,288.089472,,288.0757429,288.089472,289.0892124,289.0892124,289.0892124,289.0892124,289.0892124,290.0888232,290.0888232,290.591199,v,1,0.4881032,None,,,,,,,,,,,,,,,I,1,2024-10-17_16h49.22.519,Motor  sequence learning,2024.1.5,None,2024-10-17 16h49.57.031103 +0530
50,c,28,2,114,2,,,,,290.6054124,,290.5932511,290.6054124,291.6053653,291.6053653,291.6053653,291.6053653,291.6053653,292.6046282,292.6046282,293.0392459,c,1,0.4178839,None,,,,,,,,,,,,,,,I,1,2024-10-17_16h49.22.519,Motor  sequence learning,2024.1.5,None,2024-10-17 16h49.57.031103 +0530
-150,z,28,3,115,3,,,,,293.0544225,,293.0414066,293.0544225,294.0543856,294.0543856,294.0543856,294.0543856,294.0543856,295.0540319,295.0540319,295.5215261,z,1,0.4538972,None,,,,,,,,,,,,,,,I,1,2024-10-17_16h49.22.519,Motor  sequence learning,2024.1.5,None,2024-10-17 16h49.57.031103 +0530
-50,x,29,0,116,0,,,,,295.536975,,295.5230251,295.536975,296.536953,296.536953,296.536953,296.536953,296.536953,297.5362042,297.5362042,297.8374232,x,1,0.2978789,None,,,,,,,,,,,,,,,I,1,2024-10-17_16h49.22.519,Motor  sequence learning,2024.1.5,None,2024-10-17 16h49.57.031103 +0530
150,v,29,1,117,1,,,,,297.8527603,,297.8390905,297.8527603,298.8524963,298.8524963,298.8524963,298.8524963,298.8524963,299.8521488,299.8521488,300.3199214,v,1,0.4618196,None,,,,,,,,,,,,,,,I,1,2024-10-17_16h49.22.519,Motor  sequence learning,2024.1.5,None,2024-10-17 16h49.57.031103 +0530
50,c,29,2,118,2,,,,,300.3353209,,300.321747,300.3353209,301.3350792,301.3350792,301.3350792,301.3350792,301.3350792,302.3347909,302.3347909,302.9364158,c,1,0.5930602,None,,,,,,,,,,,,,,,I,1,2024-10-17_16h49.22.519,Motor  sequence learning,2024.1.5,None,2024-10-17 16h49.57.031103 +0530
-150,z,29,3,119,3,,,,,302.9510678,,302.9389952,302.9510678,303.9509413,303.9509413,303.9509413,303.9509413,303.9509413,304.9506901,304.9506901,305.3849001,z,1,0.4197694,None,,,,,,,,,,,,,,,I,1,2024-10-17_16h49.22.519,Motor  sequence learning,2024.1.5,None,2024-10-17 16h49.57.031103 +0530
-50,x,30,0,120,0,,,,,305.4003258,,305.3863974,305.4003258,306.400097,306.400097,306.400097,306.400097,306.400097,307.4000309,307.4000309,307.7344688,x,1,0.3249662,None,,,,,,,,,,,,,,,I,1,2024-10-17_16h49.22.519,Motor  sequence learning,2024.1.5,None,2024-10-17 16h49.57.031103 +0530
150,v,30,1,121,1,,,,,307.7496843,,307.7360278,307.7496843,308.7494809,308.7494809,308.7494809,308.7494809,308.7494809,309.7493265,309.7493265,310.5501379,v,1,0.7989519,None,,,,,,,,,,,,,,,I,1,2024-10-17_16h49.22.519,Motor  sequence learning,2024.1.5,None,2024-10-17 16h49.57.031103 +0530
50,c,30,2,122,2,,,,,310.5652071,,310.5517552,310.5652071,311.5650053,311.5650053,311.5650053,311.5650053,311.5650053,312.5647962,312.5647962,313.0991845,c,1,0.5196286,None,,,,,,,,,,,,,,,I,1,2024-10-17_16h49.22.519,Motor  sequence learning,2024.1.5,None,2024-10-17 16h49.57.031103 +0530
-150,z,30,3,123,3,,,,,313.1144052,,313.1008529,313.1144052,314.1140994,314.1140994,314.1140994,314.1140994,314.1140994,315.1137714,315.1137714,315.5815326,z,1,0.4517657,None,,,,,,,,,,,,,,,I,1,2024-10-17_16h49.22.519,Motor  sequence learning,2024.1.5,None,2024-10-17 16h49.57.031103 +0530
-50,x,31,0,124,0,,,,,315.5967936,,315.5842366,315.5967936,316.5966838,316.5966838,316.5966838,316.5966838,316.5966838,317.5961109,317.5961109,318.064185,x,1,0.4535953,None,,,,,,,,,,,,,,,I,1,2024-10-17_16h49.22.519,Motor  sequence learning,2024.1.5,None,2024-10-17 16h49.57.031103 +0530
150,v,31,1,125,1,,,,,318.079337,,318.0666049,318.079337,319.0789594,319.0789594,319.0789594,319.0789594,319.0789594,320.0786416,320.0786416,320.5636187,v,1,0.4818437,None,,,,,,,,,,,,,,,I,1,2024-10-17_16h49.22.519,Motor  sequence learning,2024.1.5,None,2024-10-17 16h49.57.031103 +0530
50,c,31,2,126,2,,,,,320.5786226,,320.566455,320.5786226,321.5781442,321.5781442,321.5781442,321.5781442,321.5781442,322.5778305,322.5778305,323.0128599,c,1,0.4217776,None,,,,,,,,,,,,,,,I,1,2024-10-17_16h49.22.519,Motor  sequence learning,2024.1.5,None,2024-10-17 16h49.57.031103 +0530
-150,z,31,3,127,3,,,,,323.0283456,,323.0149758,323.0283456,324.0274446,324.0274446,324.0274446,324.0274446,324.0274446,325.0276916,325.0276916,325.8954769,z,1,0.8647583,None,,,,,,,,,,,,,,,I,1,2024-10-17_16h49.22.519,Motor  sequence learning,2024.1.5,None,2024-10-17 16h49.57.031103 +0530
-50,x,32,0,128,0,,,,,325.9100603,,325.8976822,325.9100603,326.9097215,326.9097215,326.9097215,326.9097215,326.9097215,327.9096699,327.9096699,328.4608181,x,1,0.5389567,None,,,,,,,,,,,,,,,I,1,2024-10-17_16h49.22.519,Motor  sequence learning,2024.1.5,None,2024-10-17 16h49.57.031103 +0530
150,v,32,1,129,1,,,,,328.4763623,,328.4627363,328.4763623,329.4761143,329.4761143,329.4761143,329.4761143,329.4761143,330.4755087,330.4755087,331.1765125,v,1,0.696234,None,,,,,,,,,,,,,,,I,1,2024-10-17_16h49.22.519,Motor  sequence learning,2024.1.5,None,2024-10-17 16h49.57.031103 +0530
50,c,32,2,130,2,,,,,331.1915559,,331.1780117,331.1915559,332.191482,332.191482,332.191482,332.191482,332.191482,333.1908943,333.1908943,333.7418042,c,1,0.544042,None,,,,,,,,,,,,,,,I,1,2024-10-17_16h49.22.519,Motor  sequence learning,2024.1.5,None,2024-10-17 16h49.57.031103 +0530
-150,z,32,3,131,3,,,,,333.7572997,,333.7434776,333.7572997,334.7571019,334.7571019,334.7571019,334.7571019,334.7571019,335.7567152,335.7567152,336.1911186,z,1,0.417814,None,,,,,,,,,,,,,,,I,1,2024-10-17_16h49.22.519,Motor  sequence learning,2024.1.5,None,2024-10-17 16h49.57.031103 +0530
-50,x,33,0,132,0,,,,,336.2065881,,336.1928429,336.2065881,337.2062432,337.2062432,337.2062432,337.2062432,337.2062432,338.2058808,338.2058808,338.9741963,x,1,0.7571405,None,,,,,,,,,,,,,,,I,1,2024-10-17_16h49.22.519,Motor  sequence learning,2024.1.5,None,2024-10-17 16h49.57.031103 +0530
150,v,33,1,133,1,,,,,338.9889376,,338.9768411,338.9889376,339.9886715,339.9886715,339.9886715,339.9886715,339.9886715,340.9886903,340.9886903,341.5398556,v,1,0.5431707,None,,,,,,,,,,,,,,,I,1,2024-10-17_16h49.22.519,Motor  sequence learning,2024.1.5,None,2024-10-17 16h49.57.031103 +0530
50,c,33,2,134,2,,,,,341.5548001,,341.5418195,341.5548001,342.5545391,342.5545391,342.5545391,342.5545391,342.5545391,343.5542903,343.5542903,344.372473,c,1,0.809684,None,,,,,,,,,,,,,,,I,1,2024-10-17_16h49.22.519,Motor  sequence learning,2024.1.5,None,2024-10-17 16h49.57.031103 +0530
-150,z,33,3,135,3,,,,,344.3871448,,344.3741246,344.3871448,345.386897,345.386897,345.386897,345.386897,345.386897,346.3865881,346.3865881,346.9378623,z,1,0.5452315,None,,,,,,,,,,,,,,,I,1,2024-10-17_16h49.22.519,Motor  sequence learning,2024.1.5,None,2024-10-17 16h49.57.031103 +0530
-50,x,34,0,136,0,,,,,346.9529475,,346.9400984,346.9529475,347.9526711,347.9526711,347.9526711,347.9526711,347.9526711,348.9524999,348.9524999,349.5870549,x,1,0.6176866,None,,,,,,,,,,,,,,,I,1,2024-10-17_16h49.22.519,Motor  sequence learning,2024.1.5,None,2024-10-17 16h49.57.031103 +0530
150,v,34,1,137,1,,,,,349.602063,,349.5888493,349.602063,350.6019115,350.6019115,350.6019115,350.6019115,350.6019115,351.6013425,351.6013425,352.1862911,v,1,0.5822832,None,,,,,,,,,,,,,,,I,1,2024-10-17_16h49.22.519,Motor  sequence learning,2024.1.5,None,2024-10-17 16h49.57.031103 +0530
50,c,34,2,138,2,,,,,352.2012955,,352.1891207,352.2012955,353.2008457,353.2008457,353.2008457,353.2008457,353.2008457,354.2005739,354.2005739,354.6519391,c,1,0.4387637,None,,,,,,,,,,,,,,,I,1,2024-10-17_16h49.22.519,Motor  sequence learning,2024.1.5,None,2024-10-17 16h49.57.031103 +0530
-150,z,34,3,139,3,,,,,354.6669494,,354.6538191,354.6669494,355.6666976,355.6666976,355.6666976,355.6666976,355.6666976,356.6665002,356.6665002,357.2175947,z,1,0.5336795,None,,,,,,,,,,,,,,,I,1,2024-10-17_16h49.22.519,Motor  sequence learning,2024.1.5,None,2024-10-17 16h49.57.031103 +0530
-50,x,35,0,140,0,,,,,357.2327491,,357.2205625,357.2327491,358.2326135,358.2326135,358.2326135,358.2326135,358.2326135,359.2322102,359.2322102,359.6166387,x,1,0.3809554,None,,,,,,,,,,,,,,,I,1,2024-10-17_16h49.22.519,Motor  sequence learning,2024.1.5,None,2024-10-17 16h49.57.031103 +0530
150,v,35,1,141,1,,,,,359.631943,,359.6182432,359.631943,360.6317369,360.6317369,360.6317369,360.6317369,360.6317369,361.6312676,361.6312676,362.2831253,v,1,0.6351538,None,,,,,,,,,,,,,,,I,1,2024-10-17_16h49.22.519,Motor  sequence learning,2024.1.5,None,2024-10-17 16h49.57.031103 +0530
50,c,35,2,142,2,,,,,362.297838,,362.285089,362.297838,363.2975845,363.2975845,363.2975845,363.2975845,363.2975845,364.297283,364.297283,364.6163216,c,1,0.3093075,None,,,,,,,,,,,,,,,I,1,2024-10-17_16h49.22.519,Motor  sequence learning,2024.1.5,None,2024-10-17 16h49.57.031103 +0530
-150,z,35,3,143,3,,,,,364.6305241,,364.6190088,364.6305241,365.6300667,365.6300667,365.6300667,365.6300667,365.6300667,366.6300013,366.6300013,367.2142166,z,1,0.5694124,None,,,,,,,,,,,,,,,I,1,2024-10-17_16h49.22.519,Motor  sequence learning,2024.1.5,None,2024-10-17 16h49.57.031103 +0530
-50,x,36,0,144,0,,,,,367.2295123,,367.2160139,367.2295123,368.2294868,368.2294868,368.2294868,368.2294868,368.2294868,369.2287672,369.2287672,369.5964747,x,1,0.3572154,None,,,,,,,,,,,,,,,I,1,2024-10-17_16h49.22.519,Motor  sequence learning,2024.1.5,None,2024-10-17 16h49.57.031103 +0530
150,v,36,1,145,1,,,,,369.6120577,,369.5985002,369.6120577,370.6115991,370.6115991,370.6115991,370.6115991,370.6115991,371.6112854,371.6112854,371.9628053,v,1,0.3475348,None,,,,,,,,,,,,,,,I,1,2024-10-17_16h49.22.519,Motor  sequence learning,2024.1.5,None,2024-10-17 16h49.57.031103 +0530
50,c,36,2,146,2,,,,,371.9778695,,371.965131,371.9778695,372.9776717,372.9776717,372.9776717,372.9776717,372.9776717,373.9771642,373.9771642,374.328865,c,1,0.3341492,None,,,,,,,,,,,,,,,I,1,2024-10-17_16h49.22.519,Motor  sequence learning,2024.1.5,None,2024-10-17 16h49.57.031103 +0530
-150,z,36,3,147,3,,,,,374.3436448,,374.3316008,374.3436448,375.3432805,375.3432805,375.3432805,375.3432805,375.3432805,376.3432132,376.3432132,376.7943934,z,1,0.4425749,None,,,,,,,,,,,,,,,I,1,2024-10-17_16h49.22.519,Motor  sequence learning,2024.1.5,None,2024-10-17 16h49.57.031103 +0530
-50,x,37,0,148,0,,,,,376.8096127,,376.7962735,376.8096127,377.809157,377.809157,377.809157,377.809157,377.809157,378.8089476,378.8089476,379.1771861,x,1,0.3626557,None,,,,,,,,,,,,,,,I,1,2024-10-17_16h49.22.519,Motor  sequence learning,2024.1.5,None,2024-10-17 16h49.57.031103 +0530
150,v,37,1,149,1,,,,,379.1921745,,379.1791073,379.1921745,380.1919189,380.1919189,380.1919189,380.1919189,380.1919189,381.1916114,381.1916114,381.7095636,v,1,0.5064194,None,,,,,,,,,,,,,,,I,1,2024-10-17_16h49.22.519,Motor  sequence learning,2024.1.5,None,2024-10-17 16h49.57.031103 +0530
50,c,37,2,150,2,,,,,381.7248046,,381.7118688,381.7248046,382.7245166,382.7245166,382.7245166,382.7245166,382.7245166,383.7243633,383.7243633,384.1925777,c,1,0.4661339,None,,,,,,,,,,,,,,,I,1,2024-10-17_16h49.22.519,Motor  sequence learning,2024.1.5,None,2024-10-17 16h49.57.031103 +0530
-150,z,37,3,151,3,,,,,384.2072351,,384.1950539,384.2072351,385.2071218,385.2071218,385.2071218,385.2071218,385.2071218,386.2063216,386.2063216,386.7744613,z,1,0.5664992,None,,,,,,,,,,,,,,,I,1,2024-10-17_16h49.22.519,Motor  sequence learning,2024.1.5,None,2024-10-17 16h49.57.031103 +0530
-50,x,38,0,152,0,,,,,386.7894703,,386.7760924,386.7894703,387.7891309,387.7891309,387.7891309,387.7891309,387.7891309,388.7889511,388.7889511,389.1233029,x,1,0.3190015,None,,,,,,,,,,,,,,,I,1,2024-10-17_16h49.22.519,Motor  sequence learning,2024.1.5,None,2024-10-17 16h49.57.031103 +0530
150,v,38,1,153,1,,,,,389.138789,,389.1245778,389.138789,390.1383657,390.1383657,390.1383657,390.1383657,390.1383657,391.1380663,391.1380663,391.9391761,v,1,0.7953985,None,,,,,,,,,,,,,,,I,1,2024-10-17_16h49.22.519,Motor  sequence learning,2024.1.5,None,2024-10-17 16h49.57.031103 +0530
50,c,38,2,154,2,,,,,391.9543711,,391.9418889,391.9543711,392.9541983,392.9541983,392.9541983,392.9541983,392.9541983,393.9538127,393.9538127,394.5555628,c,1,0.5984488,None,,,,,,,,,,,,,,,I,1,2024-10-17_16h49.22.519,Motor  sequence learning,2024.1.5,None,2024-10-17 16h49.57.031103 +0530
-150,z,38,3,155,3,,,,,394.5703958,,394.5577047,394.5703958,395.5701289,395.5701289,395.5701289,395.5701289,395.5701289,396.5696837,396.5696837,396.9049193,z,1,0.3292363,None,,,,,,,,,,,,,,,I,1,2024-10-17_16h49.22.519,Motor  sequence learning,2024.1.5,None,2024-10-17 16h49.57.031103 +0530
-50,x,39,0,156,0,,,,,396.9197385,,396.9069558,396.9197385,397.9191597,397.9191597,397.9191597,397.9191597,397.9191597,398.9187746,398.9187746,399.2364392,x,1,0.3063223,None,,,,,,,,,,,,,,,I,1,2024-10-17_16h49.22.519,Motor  sequence learning,2024.1.5,None,2024-10-17 16h49.57.031103 +0530
150,v,39,1,157,1,,,,,399.2519477,,399.2380833,399.2519477,400.2516319,400.2516319,400.2516319,400.2516319,400.2516319,401.2513316,401.2513316,401.7856699,v,1,0.5187843,None,,,,,,,,,,,,,,,I,1,2024-10-17_16h49.22.519,Motor  sequence learning,2024.1.5,None,2024-10-17 16h49.57.031103 +0530
50,c,39,2,158,2,,,,,401.8010421,,401.7873789,401.8010421,402.8007096,402.8007096,402.8007096,402.8007096,402.8007096,403.8004302,403.8004302,404.4017357,c,1,0.5934076,None,,,,,,,,,,,,,,,I,1,2024-10-17_16h49.22.519,Motor  sequence learning,2024.1.5,None,2024-10-17 16h49.57.031103 +0530
-150,z,39,3,159,3,,,,,404.4168297,,404.4035503,404.4168297,405.4165927,405.4165927,405.4165927,405.4165927,405.4165927,406.4162201,406.4162201,406.8342349,z,1,0.4092904,None,,,,,,,,,,,,,,,I,1,2024-10-17_16h49.22.519,Motor  sequence learning,2024.1.5,None,2024-10-17 16h49.57.031103 +0530
-50,x,40,0,160,0,,,,,406.8493199,,406.8368737,406.8493199,407.849077,407.849077,407.849077,407.849077,407.849077,408.8489746,408.8489746,409.6331533,x,1,0.767134,None,,,,,,,,,,,,,,,I,1,2024-10-17_16h49.22.519,Motor  sequence learning,2024.1.5,None,2024-10-17 16h49.57.031103 +0530
150,v,40,1,161,1,,,,,409.6484832,,409.6348542,409.6484832,410.6481995,410.6481995,410.6481995,410.6481995,410.6481995,411.6478423,411.6478423,412.7486981,v,1,1.0967209,None,,,,,,,,,,,,,,,I,1,2024-10-17_16h49.22.519,Motor  sequence learning,2024.1.5,None,2024-10-17 16h49.57.031103 +0530
50,c,40,2,162,2,,,,,412.7641602,,412.7518648,412.7641602,413.7637972,413.7637972,413.7637972,413.7637972,413.7637972,414.7633616,414.7633616,415.4146341,c,1,0.6469804,None,,,,,,,,,,,,,,,I,1,2024-10-17_16h49.22.519,Motor  sequence learning,2024.1.5,None,2024-10-17 16h49.57.031103 +0530
-150,z,40,3,163,3,,,,,415.4297418,,415.4162053,415.4297418,416.4295739,416.4295739,416.4295739,416.4295739,416.4295739,417.4294184,417.4294184,418.4135748,z,1,0.9737501,None,,,,,,,,,,,,,,,I,1,2024-10-17_16h49.22.519,Motor  sequence learning,2024.1.5,None,2024-10-17 16h49.57.031103 +0530
-50,x,41,0,164,0,,,,,418.4286985,,418.4154023,418.4286985,419.4283966,419.4283966,419.4283966,419.4283966,419.4283966,420.4281523,420.4281523,421.1291793,x,1,0.6867783,None,,,,,,,,,,,,,,,I,1,2024-10-17_16h49.22.519,Motor  sequence learning,2024.1.5,None,2024-10-17 16h49.57.031103 +0530
150,v,41,1,165,1,,,,,421.1446588,,421.1307866,421.1446588,422.1443186,422.1443186,422.1443186,422.1443186,422.1443186,423.1438284,423.1438284,423.9783305,v,1,0.8190732,None,,,,,,,,,,,,,,,I,1,2024-10-17_16h49.22.519,Motor  sequence learning,2024.1.5,None,2024-10-17 16h49.57.031103 +0530
50,c,41,2,166,2,,,,,423.9935246,,423.9798631,423.9935246,424.9934512,424.9934512,424.9934512,424.9934512,424.9934512,425.9931722,425.9931722,426.2952813,c,1,0.299793,None,,,,,,,,,,,,,,,I,1,2024-10-17_16h49.22.519,Motor  sequence learning,2024.1.5,None,2024-10-17 16h49.57.031103 +0530
-150,z,41,3,167,3,,,,,426.3095969,,426.2971741,426.3095969,427.3093518,427.3093518,427.3093518,427.3093518,427.3093518,428.3088765,428.3088765,428.5604958,z,1,0.2462734,None,,,,,,,,,,,,,,,I,1,2024-10-17_16h49.22.519,Motor  sequence learning,2024.1.5,None,2024-10-17 16h49.57.031103 +0530
-50,x,42,0,168,0,,,,,428.5756085,,428.5623105,428.5756085,429.5754145,429.5754145,429.5754145,429.5754145,429.5754145,430.5748044,430.5748044,430.8265766,x,1,0.2416432,None,,,,,,,,,,,,,,,I,1,2024-10-17_16h49.22.519,Motor  sequence learning,2024.1.5,None,2024-10-17 16h49.57.031103 +0530
150,v,42,1,169,1,,,,,430.8413465,,430.8286748,430.8413465,431.8410603,431.8410603,431.8410603,431.8410603,431.8410603,432.8407652,432.8407652,433.1776185,v,1,0.3186978,None,,,,,,,,,,,,,,,I,1,2024-10-17_16h49.22.519,Motor  sequence learning,2024.1.5,None,2024-10-17 16h49.57.031103 +0530
50,c,42,2,170,2,,,,,433.1907614,,433.1802621,433.1907614,434.1901448,434.1901448,434.1901448,434.1901448,434.1901448,435.189787,435.189787,435.4745791,c,1,0.283036,None,,,,,,,,,,,,,,,I,1,2024-10-17_16h49.22.519,Motor  sequence learning,2024.1.5,None,2024-10-17 16h49.57.031103 +0530
-150,z,42,3,171,3,,,,,435.489718,,435.4761817,435.489718,436.489477,436.489477,436.489477,436.489477,436.489477,437.4891695,437.4891695,437.907506,z,1,0.4021124,None,,,,,,,,,,,,,,,I,1,2024-10-17_16h49.22.519,Motor  sequence learning,2024.1.5,None,2024-10-17 16h49.57.031103 +0530
150,v,43,1,173,1,,,,,440.2547871,,440.2414235,440.2547871,441.254618,441.254618,441.254618,441.254618,441.254618,442.2544049,442.2544049,442.9555759,v,1,0.6952547,None,,,,,,,,,,,,,,,I,1,2024-10-17_16h49.22.519,Motor  sequence learning,2024.1.5,None,2024-10-17 16h49.57.031103 +0530
50,c,43,2,174,2,,,,,442.9708193,,442.9572855,442.9708193,443.9702495,443.9702495,443.9702495,443.9702495,443.9702495,444.9698814,444.9698814,445.3046775,c,1,0.317637,None,,,,,,,,,,,,,,,I,1,2024-10-17_16h49.22.519,Motor  sequence learning,2024.1.5,None,2024-10-17 16h49.57.031103 +0530
-150,z,43,3,175,3,,,,,445.3198406,,445.3068156,445.3198406,446.3195541,446.3195541,446.3195541,446.3195541,446.3195541,447.3191823,447.3191823,447.7371416,z,1,0.4107628,None,,,,,,,,,,,,,,,I,1,2024-10-17_16h49.22.519,Motor  sequence learning,2024.1.5,None,2024-10-17 16h49.57.031103 +0530
-50,x,44,0,176,0,,,,,447.7524278,,447.739188,447.7524278,448.7522842,448.7522842,448.7522842,448.7522842,448.7522842,449.751648,449.751648,450.4526291,x,1,0.6953345,None,,,,,,,,,,,,,,,I,1,2024-10-17_16h49.22.519,Motor  sequence learning,2024.1.5,None,2024-10-17 16h49.57.031103 +0530
150,v,44,1,177,1,,,,,450.4680434,,450.4543502,450.4680434,451.4676865,451.4676865,451.4676865,451.4676865,451.4676865,452.4674099,452.4674099,452.7689862,v,1,0.2997382,None,,,,,,,,,,,,,,,I,1,2024-10-17_16h49.22.519,Motor  sequence learning,2024.1.5,None,2024-10-17 16h49.57.031103 +0530
50,c,44,2,178,2,,,,,452.7839226,,452.7706263,452.7839226,453.7834986,453.7834986,453.7834986,453.7834986,453.7834986,454.7832171,454.7832171,455.1178639,c,1,0.3281352,None,,,,,,,,,,,,,,,I,1,2024-10-17_16h49.22.519,Motor  sequence learning,2024.1.5,None,2024-10-17 16h49.57.031103 +0530
-150,z,44,3,179,3,,,,,455.1330321,,455.1196841,455.1330321,456.1327565,456.1327565,456.1327565,456.1327565,456.1327565,457.1327091,457.1327091,458.2171161,z,1,1.0682191,None,,,,,,,,,,,,,,,I,1,2024-10-17_16h49.22.519,Motor  sequence learning,2024.1.5,None,2024-10-17 16h49.57.031103 +0530
-50,x,45,0,180,0,,,,,458.2321051,,458.2188822,458.2321051,459.2318352,459.2318352,459.2318352,459.2318352,459.2318352,460.2315876,460.2315876,460.3163645,x,1,0.078312,None,,,,,,,,,,,,,,,I,1,2024-10-17_16h49.22.519,Motor  sequence learning,2024.1.5,None,2024-10-17 16h49.57.031103 +0530
150,v,45,1,181,1,,,,,460.3315181,,460.318294,460.3315181,461.3313444,461.3313444,461.3313444,461.3313444,461.3313444,462.3307769,462.3307769,462.6654948,v,1,0.3316824,None,,,,,,,,,,,,,,,I,1,2024-10-17_16h49.22.519,Motor  sequence learning,2024.1.5,None,2024-10-17 16h49.57.031103 +0530
50,c,45,2,182,2,,,,,462.6806102,,462.667111,462.6806102,463.6803232,463.6803232,463.6803232,463.6803232,463.6803232,464.6800512,464.6800512,465.081612,c,1,0.3943201,None,,,,,,,,,,,,,,,I,1,2024-10-17_16h49.22.519,Motor  sequence learning,2024.1.5,None,2024-10-17 16h49.57.031103 +0530
-150,z,45,3,183,3,,,,,465.0966263,,465.0839961,465.0966263,466.0960659,466.0960659,466.0960659,466.0960659,466.0960659,467.0957208,467.0957208,467.546949,z,1,0.4446667,None,,,,,,,,,,,,,,,I,1,2024-10-17_16h49.22.519,Motor  sequence learning,2024.1.5,None,2024-10-17 16h49.57.031103 +0530
-50,x,46,0,184,0,,,,,467.5621915,,467.548738,467.5621915,468.5619069,468.5619069,468.5619069,468.5619069,468.5619069,469.5617603,469.5617603,470.1792059,x,1,0.6105091,None,,,,,,,,,,,,,,,I,1,2024-10-17_16h49.22.519,Motor  sequence learning,2024.1.5,None,2024-10-17 16h49.57.031103 +0530
150,v,46,1,185,1,,,,,470.1946368,,470.1810105,470.1946368,471.1943018,471.1943018,471.1943018,471.1943018,471.1943018,472.1940655,472.1940655,472.5954811,v,1,0.3899096,None,,,,,,,,,,,,,,,I,1,2024-10-17_16h49.22.519,Motor  sequence learning,2024.1.5,None,2024-10-17 16h49.57.031103 +0530
50,c,46,2,186,2,,,,,472.6106531,,472.5982051,472.6106531,473.6103878,473.6103878,473.6103878,473.6103878,473.6103878,474.6099626,474.6099626,475.7448836,c,1,1.1332175,None,,,,,,,,,,,,,,,I,1,2024-10-17_16h49.22.519,Motor  sequence learning,2024.1.5,None,2024-10-17 16h49.57.031103 +0530
-150,z,46,3,187,3,,,,,475.75954,,475.7467854,475.75954,476.7592963,476.7592963,476.7592963,476.7592963,476.7592963,477.7591227,477.7591227,478.2272467,z,1,0.4541742,None,,,,,,,,,,,,,,,I,1,2024-10-17_16h49.22.519,Motor  sequence learning,2024.1.5,None,2024-10-17 16h49.57.031103 +0530
-50,x,47,0,188,0,,,,,478.2422377,,478.2291785,478.2422377,479.241801,479.241801,479.241801,479.241801,479.241801,480.2416564,480.2416564,480.7096954,x,1,0.4552593,None,,,,,,,,,,,,,,,I,1,2024-10-17_16h49.22.519,Motor  sequence learning,2024.1.5,None,2024-10-17 16h49.57.031103 +0530
150,v,47,1,189,1,,,,,480.7246385,,480.7120419,480.7246385,481.7245252,481.7245252,481.7245252,481.7245252,481.7245252,482.7239021,482.7239021,483.1418817,v,1,0.4083253,None,,,,,,,,,,,,,,,I,1,2024-10-17_16h49.22.519,Motor  sequence learning,2024.1.5,None,2024-10-17 16h49.57.031103 +0530
50,c,47,2,190,2,,,,,483.156992,,483.1440678,483.156992,484.1567621,484.1567621,484.1567621,484.1567621,484.1567621,485.1563495,485.1563495,486.0408856,c,1,0.8807209,None,,,,,,,,,,,,,,,I,1,2024-10-17_16h49.22.519,Motor  sequence learning,2024.1.5,None,2024-10-17 16h49.57.031103 +0530
-150,z,47,3,191,3,,,,,486.0560598,,486.0424908,486.0560598,487.0555834,487.0555834,487.0555834,487.0555834,487.0555834,488.0552945,488.0552945,488.3895119,z,1,0.3182528,None,,,,,,,,,,,,,,,I,1,2024-10-17_16h49.22.519,Motor  sequence learning,2024.1.5,None,2024-10-17 16h49.57.031103 +0530
-50,x,48,0,192,0,,,,,488.4051799,,488.3909759,488.4051799,489.4049535,489.4049535,489.4049535,489.4049535,489.4049535,490.4045254,490.4045254,490.7233093,x,1,0.3105287,None,,,,,,,,,,,,,,,I,1,2024-10-17_16h49.22.519,Motor  sequence learning,2024.1.5,None,2024-10-17 16h49.57.031103 +0530
150,v,48,1,193,1,,,,,490.737844,,490.7253468,490.737844,491.7374764,491.7374764,491.7374764,491.7374764,491.7374764,492.7371852,492.7371852,493.0887765,v,1,0.3419458,None,,,,,,,,,,,,,,,I,1,2024-10-17_16h49.22.519,Motor  sequence learning,2024.1.5,None,2024-10-17 16h49.57.031103 +0530
50,c,48,2,194,2,,,,,493.1037888,,493.0905449,493.1037888,494.103489,494.103489,494.103489,494.103489,494.103489,495.1029467,495.1029467,496.2542607,c,1,1.1485806,None,,,,,,,,,,,,,,,I,1,2024-10-17_16h49.22.519,Motor  sequence learning,2024.1.5,None,2024-10-17 16h49.57.031103 +0530
-150,z,48,3,195,3,,,,,496.2693027,,496.2557828,496.2693027,497.2692536,497.2692536,497.2692536,497.2692536,497.2692536,498.2686884,498.2686884,499.8196754,z,1,1.5342566,None,,,,,,,,,,,,,,,I,1,2024-10-17_16h49.22.519,Motor  sequence learning,2024.1.5,None,2024-10-17 16h49.57.031103 +0530
-50,x,49,0,196,0,,,,,499.8346916,,499.8216176,499.8346916,500.8346379,500.8346379,500.8346379,500.8346379,500.8346379,501.8340423,501.8340423,502.1519664,x,1,0.3153766,None,,,,,,,,,,,,,,,I,1,2024-10-17_16h49.22.519,Motor  sequence learning,2024.1.5,None,2024-10-17 16h49.57.031103 +0530
150,v,49,1,197,1,,,,,502.167229,,502.1535542,502.167229,503.1668783,503.1668783,503.1668783,503.1668783,503.1668783,504.1665728,504.1665728,504.5014528,v,1,0.3231987,None,,,,,,,,,,,,,,,I,1,2024-10-17_16h49.22.519,Motor  sequence learning,2024.1.5,None,2024-10-17 16h49.57.031103 +0530
50,c,49,2,198,2,,,,,504.5164481,,504.50398,504.5164481,505.5162155,505.5162155,505.5162155,505.5162155,505.5162155,506.5156684,506.5156684,507.3839317,c,1,0.8509058,None,,,,,,,,,,,,,,,I,1,2024-10-17_16h49.22.519,Motor  sequence learning,2024.1.5,None,2024-10-17 16h49.57.031103 +0530
-150,z,49,3,199,3,,,,,507.3987208,,507.386774,507.3987208,508.3987161,508.3987161,508.3987161,508.3987161,508.3987161,509.3982372,509.3982372,509.8492723,z,1,0.4349893,None,,,,,,,,,,,,,,,I,1,2024-10-17_16h49.22.519,Motor  sequence learning,2024.1.5,None,2024-10-17 16h49.57.031103 +0530
50,c,,,,,0,0,0,2,509.8680989,,,,,,,,,,,,,,,,509.8585773,509.8680989,510.8510184,510.8510184,510.8510184,510.8510184,510.864289,511.864486,511.864486,513.2321109,c,1,1.3633467,None,I,1,2024-10-17_16h49.22.519,Motor  sequence learning,2024.1.5,None,2024-10-17 16h49.57.031103 +0530
-50,x,,,,,0,1,1,0,513.2507882,,,,,,,,,,,,,,,,513.2348657,513.2507882,514.2354165,514.2354165,514.2354165,514.2354165,514.2467051,515.2462363,515.2462363,516.0141882,x,1,0.7505378,None,I,1,2024-10-17_16h49.22.519,Motor  sequence learning,2024.1.5,None,2024-10-17 16h49.57.031103 +0530
50,c,,,,,0,2,2,2,516.0327553,,,,,,,,,,,,,,,,516.0162846,516.0327553,517.0165667,517.0165667,517.0165667,517.0165667,517.0290542,518.0288985,518.0288985,518.7462678,c,1,0.7060645,None,I,1,2024-10-17_16h49.22.519,Motor  sequence learning,2024.1.5,None,2024-10-17 16h49.57.031103 +0530
50,c,,,,,0,3,3,2,518.7653146,,,,,,,,,,,,,,,,518.7478726,518.7653146,519.7483783,519.7483783,519.7483783,519.7483783,519.7613374,520.7610472,520.7610472,521.2793906,c,1,0.5142039,None,I,1,2024-10-17_16h49.22.519,Motor  sequence learning,2024.1.5,None,2024-10-17 16h49.57.031103 +0530
150,v,,,,,1,0,4,1,521.2984108,,,,,,,,,,,,,,,,521.2824174,521.2984108,522.2808369,522.2808369,522.2808369,522.2808369,522.2938449,523.2934269,523.2934269,524.1277484,v,1,0.8307654,None,I,1,2024-10-17_16h49.22.519,Motor  sequence learning,2024.1.5,None,2024-10-17 16h49.57.031103 +0530
-150,z,,,,,1,1,5,3,524.147254,,,,,,,,,,,,,,,,524.1294446,524.147254,525.1303304,525.1303304,525.1303304,525.1303304,525.1429097,526.1425988,526.1425988,527.3269864,z,1,1.1682665,None,I,1,2024-10-17_16h49.22.519,Motor  sequence learning,2024.1.5,None,2024-10-17 16h49.57.031103 +0530
-50,x,,,,,1,2,6,0,527.3454574,,,,,,,,,,,,,,,,527.3284839,527.3454574,528.329242,528.329242,528.329242,528.329242,528.3419453,529.3416145,529.3416145,529.9602653,x,1,0.6058393,None,I,1,2024-10-17_16h49.22.519,Motor  sequence learning,2024.1.5,None,2024-10-17 16h49.57.031103 +0530
-50,x,,,,,1,3,7,0,529.9782723,,,,,,,,,,,,,,,,529.962072,529.9782723,530.9613017,530.9613017,530.9613017,530.9613017,530.9742283,531.9738466,531.9738466,532.8088022,x,1,0.8220185,None,I,1,2024-10-17_16h49.22.519,Motor  sequence learning,2024.1.5,None,2024-10-17 16h49.57.031103 +0530
-150,z,,,,,2,0,8,3,532.8277218,,,,,,,,,,,,,,,,532.8111258,532.8277218,533.8110637,533.8110637,533.8110637,533.8110637,533.8233914,534.8231157,534.8231157,535.5271994,z,1,0.6950609,None,I,1,2024-10-17_16h49.22.519,Motor  sequence learning,2024.1.5,None,2024-10-17 16h49.57.031103 +0530
-150,z,,,,,2,1,9,3,535.5435471,,,,,,,,,,,,,,,,535.5306489,535.5435471,536.5391074,536.5391074,536.5391074,536.5391074,536.5391074,537.5404514,537.5404514,538.0899519,z,1,0.5427036,None,I,1,2024-10-17_16h49.22.519,Motor  sequence learning,2024.1.5,None,2024-10-17 16h49.57.031103 +0530
50,c,,,,,2,2,10,2,538.1090006,,,,,,,,,,,,,,,,538.0915322,538.1090006,539.0918654,539.0918654,539.0918654,539.0918654,539.1046922,540.1044397,540.1044397,541.1893457,c,1,1.0725862,None,I,1,2024-10-17_16h49.22.519,Motor  sequence learning,2024.1.5,None,2024-10-17 16h49.57.031103 +0530
50,c,,,,,2,3,11,2,541.2081948,,,,,,,,,,,,,,,,541.1921778,541.2081948,542.1909266,542.1909266,542.1909266,542.1909266,542.2037948,543.2033267,543.2033267,543.9544102,c,1,0.7366132,None,I,1,2024-10-17_16h49.22.519,Motor  sequence learning,2024.1.5,None,2024-10-17 16h49.57.031103 +0530
-50,x,,,,,3,0,12,0,543.973545,,,,,,,,,,,,,,,,543.9560207,543.973545,544.9564679,544.9564679,544.9564679,544.9564679,544.9694712,545.9695306,545.9695306,546.6867314,x,1,0.7131163,None,I,1,2024-10-17_16h49.22.519,Motor  sequence learning,2024.1.5,None,2024-10-17 16h49.57.031103 +0530
50,c,,,,,3,1,13,2,546.7062213,,,,,,,,,,,,,,,,546.6884279,546.7062213,547.6896572,547.6896572,547.6896572,547.6896572,547.7019534,548.701891,548.701891,549.9695048,c,1,1.2504989,None,I,1,2024-10-17_16h49.22.519,Motor  sequence learning,2024.1.5,None,2024-10-17 16h49.57.031103 +0530
-150,z,,,,,3,2,14,3,549.9882619,,,,,,,,,,,,,,,,549.9713293,549.9882619,550.9747515,550.9747515,550.9747515,550.9747515,550.986074,551.9839274,551.9839274,553.9182006,z,1,1.9223575,None,I,1,2024-10-17_16h49.22.519,Motor  sequence learning,2024.1.5,None,2024-10-17 16h49.57.031103 +0530
-50,x,,,,,3,3,15,0,553.9371384,,,,,,,,,,,,,,,,553.9199736,553.9371384,554.9230159,554.9230159,554.9230159,554.9230159,554.9336549,555.932767,555.932767,556.8674292,x,1,0.9219802,None,I,1,2024-10-17_16h49.22.519,Motor  sequence learning,2024.1.5,None,2024-10-17 16h49.57.031103 +0530
-50,x,,,,,4,0,16,0,556.8855897,,,,,,,,,,,,,,,,556.8700696,556.8855897,557.8689137,557.8689137,557.8689137,557.8689137,557.8818128,558.8813456,558.8813456,559.9656298,x,1,1.0711937,None,I,1,2024-10-17_16h49.22.519,Motor  sequence learning,2024.1.5,None,2024-10-17 16h49.57.031103 +0530
50,c,,,,,4,1,17,2,559.9847606,,,,,,,,,,,,,,,,559.9671518,559.9847606,560.9677551,560.9677551,560.9677551,560.9677551,560.9807477,561.9804049,561.9804049,563.6479634,c,1,1.6542522,None,I,1,2024-10-17_16h49.22.519,Motor  sequence learning,2024.1.5,None,2024-10-17 16h49.57.031103 +0530
50,c,,,,,4,2,18,2,563.6675121,,,,,,,,,,,,,,,,563.6496134,563.6675121,564.6502727,564.6502727,564.6502727,564.6502727,564.6628553,565.6628821,565.6628821,567.0139407,c,1,1.3473159,None,I,1,2024-10-17_16h49.22.519,Motor  sequence learning,2024.1.5,None,2024-10-17 16h49.57.031103 +0530
50,c,,,,,4,3,19,2,567.0323433,,,,,,,,,,,,,,,,567.0157724,567.0323433,568.0153197,568.0153197,568.0153197,568.0153197,568.0286811,569.0284174,569.0284174,569.9129221,c,1,0.8772483,None,I,1,2024-10-17_16h49.22.519,Motor  sequence learning,2024.1.5,None,2024-10-17 16h49.57.031103 +0530
150,v,,,,,5,0,20,1,569.9311188,,,,,,,,,,,,,,,,569.9146309,569.9311188,570.9145465,570.9145465,570.9145465,570.9145465,570.9278495,571.9276828,571.9276828,572.695436,v,1,0.7542948,None,I,1,2024-10-17_16h49.22.519,Motor  sequence learning,2024.1.5,None,2024-10-17 16h49.57.031103 +0530
-150,z,,,,,5,1,21,3,572.7142245,,,,,,,,,,,,,,,,572.6973621,572.7142245,573.6968679,573.6968679,573.6968679,573.6968679,573.7102772,574.7095382,574.7095382,575.644242,z,1,0.9258258,None,I,1,2024-10-17_16h49.22.519,Motor  sequence learning,2024.1.5,None,2024-10-17 16h49.57.031103 +0530
-150,z,,,,,5,2,22,3,575.6626552,,,,,,,,,,,,,,,,575.6461685,575.6626552,576.6462442,576.6462442,576.6462442,576.6462442,576.6589107,577.6588019,577.6588019,578.1600195,z,1,0.4939683,None,I,1,2024-10-17_16h49.22.519,Motor  sequence learning,2024.1.5,None,2024-10-17 16h49.57.031103 +0530
150,v,,,,,5,3,23,1,578.1789194,,,,,,,,,,,,,,,,578.1617933,578.1789194,579.1614112,579.1614112,579.1614112,579.1614112,579.1746955,580.1742525,580.1742525,581.1420078,v,1,0.9562411,None,I,1,2024-10-17_16h49.22.519,Motor  sequence learning,2024.1.5,None,2024-10-17 16h49.57.031103 +0530
-150,z,,,,,6,0,24,3,581.1612452,,,,,,,,,,,,,,,,581.1435424,581.1612452,582.1444047,582.1444047,582.1444047,582.1444047,582.1570913,583.1566741,583.1566741,584.1074516,z,1,0.9445695,None,I,1,2024-10-17_16h49.22.519,Motor  sequence learning,2024.1.5,None,2024-10-17 16h49.57.031103 +0530
-50,x,,,,,6,1,25,0,584.126681,,,,,,,,,,,,,,,,584.1090647,584.126681,585.1111138,585.1111138,585.1111138,585.1111138,585.1226965,586.1223319,586.1223319,587.3230792,x,1,1.1858768,None,I,1,2024-10-17_16h49.22.519,Motor  sequence learning,2024.1.5,None,2024-10-17 16h49.57.031103 +0530
-50,x,,,,,6,2,26,0,587.3419375,,,,,,,,,,,,,,,,587.324574,587.3419375,588.3250839,588.3250839,588.3250839,588.3250839,588.3380946,589.3401364,589.3401364,589.9730571,x,1,0.6194062,None,I,1,2024-10-17_16h49.22.519,Motor  sequence learning,2024.1.5,None,2024-10-17 16h49.57.031103 +0530
-50,x,,,,,6,3,27,0,589.9917114,,,,,,,,,,,,,,,,589.9750431,589.9917114,590.973908,590.973908,590.973908,590.973908,591.0040666,591.9869973,591.9869973,592.5555611,x,1,0.5599756,None,I,1,2024-10-17_16h49.22.519,Motor  sequence learning,2024.1.5,None,2024-10-17 16h49.57.031103 +0530
-150,z,,,,,7,0,28,3,592.5737952,,,,,,,,,,,,,,,,592.5575547,592.5737952,593.5567958,593.5567958,593.5567958,593.5567958,593.570023,594.5694991,594.5694991,595.2712904,z,1,0.694261,None,I,1,2024-10-17_16h49.22.519,Motor  sequence learning,2024.1.5,None,2024-10-17 16h49.57.031103 +0530
-150,z,,,,,7,1,29,3,595.2899907,,,,,,,,,,,,,,,,595.2732103,595.2899907,596.2794393,596.2794393,596.2794393,596.2794393,596.2939545,597.2851907,597.2851907,597.9365075,z,1,0.6363223,None,I,1,2024-10-17_16h49.22.519,Motor  sequence learning,2024.1.5,None,2024-10-17 16h49.57.031103 +0530
-50,x,,,,,7,2,30,0,597.9555275,,,,,,,,,,,,,,,,597.9380223,597.9555275,598.9382099,598.9382099,598.9382099,598.9382099,598.951215,599.9508643,599.9508643,600.7355489,x,1,0.7752552,None,I,1,2024-10-17_16h49.22.519,Motor  sequence learning,2024.1.5,None,2024-10-17 16h49.57.031103 +0530
-150,z,,,,,7,3,31,3,600.7543665,,,,,,,,,,,,,,,,600.7382066,600.7543665,601.7374643,601.7374643,601.7374643,601.7374643,601.7503674,602.7499678,602.7499678,603.7008335,z,1,0.9425895,None,I,1,2024-10-17_16h49.22.519,Motor  sequence learning,2024.1.5,None,2024-10-17 16h49.57.031103 +0530
150,v,,,,,8,0,32,1,603.720025,,,,,,,,,,,,,,,,603.7025234,603.720025,604.7049381,604.7049381,604.7049381,604.7049381,604.7160653,605.7160374,605.7160374,606.6834686,v,1,0.9568324,None,I,1,2024-10-17_16h49.22.519,Motor  sequence learning,2024.1.5,None,2024-10-17 16h49.57.031103 +0530
50,c,,,,,8,1,33,2,606.7021154,,,,,,,,,,,,,,,,606.6849681,606.7021154,607.6859553,607.6859553,607.6859553,607.6859553,607.6987293,608.6979984,608.6979984,609.4327615,c,1,0.7306173,None,I,1,2024-10-17_16h49.22.519,Motor  sequence learning,2024.1.5,None,2024-10-17 16h49.57.031103 +0530
-50,x,,,,,8,2,34,0,609.4514971,,,,,,,,,,,,,,,,609.4344029,609.4514971,610.4380387,610.4380387,610.4380387,610.4380387,610.447435,611.4470439,611.4470439,613.3314596,x,1,1.871313,None,I,1,2024-10-17_16h49.22.519,Motor  sequence learning,2024.1.5,None,2024-10-17 16h49.57.031103 +0530
-50,x,,,,,8,3,35,0,613.3501532,,,,,,,,,,,,,,,,613.3332638,613.3501532,614.3334364,614.3334364,614.3334364,614.3334364,614.3460214,615.3457031,615.3457031,616.1466279,x,1,0.7874465,None,I,1,2024-10-17_16h49.22.519,Motor  sequence learning,2024.1.5,None,2024-10-17 16h49.57.031103 +0530
-150,z,,,,,9,0,36,3,616.1657091,,,,,,,,,,,,,,,,616.1482633,616.1657091,617.1509834,617.1509834,617.1509834,617.1509834,617.1617985,618.1614843,618.1614843,618.8959175,z,1,0.7315429,None,I,1,2024-10-17_16h49.22.519,Motor  sequence learning,2024.1.5,None,2024-10-17 16h49.57.031103 +0530
-150,z,,,,,9,1,37,3,618.9149309,,,,,,,,,,,,,,,,618.8975635,618.9149309,619.8983588,619.8983588,619.8983588,619.8983588,619.9108418,620.9105225,620.9105225,621.4950827,z,1,0.5703116,None,I,1,2024-10-17_16h49.22.519,Motor  sequence learning,2024.1.5,None,2024-10-17 16h49.57.031103 +0530
150,v,,,,,9,2,38,1,621.514148,,,,,,,,,,,,,,,,621.4966384,621.514148,622.4969975,622.4969975,622.4969975,622.4969975,622.5103269,623.5096733,623.5096733,624.3277768,v,1,0.8089076,None,I,1,2024-10-17_16h49.22.519,Motor  sequence learning,2024.1.5,None,2024-10-17 16h49.57.031103 +0530
-150,z,,,,,9,3,39,3,624.3466169,,,,,,,,,,,,,,,,624.3305729,624.3466169,625.3339753,625.3339753,625.3339753,625.3339753,625.346274,626.342253,626.342253,627.4099727,z,1,1.0632396,None,I,1,2024-10-17_16h49.22.519,Motor  sequence learning,2024.1.5,None,2024-10-17 16h49.57.031103 +0530
50,c,,,,,10,0,40,2,627.4285223,,,,,,,,,,,,,,,,627.4119887,627.4285223,628.4171444,628.4171444,628.4171444,628.4171444,628.4298122,629.4246497,629.4246497,630.5255893,c,1,1.0990483,None,I,1,2024-10-17_16h49.22.519,Motor  sequence learning,2024.1.5,None,2024-10-17 16h49.57.031103 +0530
-150,z,,,,,10,1,41,3,630.5443642,,,,,,,,,,,,,,,,630.5272112,630.5443642,631.5280187,631.5280187,631.5280187,631.5280187,631.5402607,632.5399603,632.5399603,633.3079272,z,1,0.7637748,None,I,1,2024-10-17_16h49.22.519,Motor  sequence learning,2024.1.5,None,2024-10-17 16h49.57.031103 +0530
-150,z,,,,,10,2,42,3,633.3268159,,,,,,,,,,,,,,,,633.3095737,633.3268159,634.3126824,634.3126824,634.3126824,634.3126824,634.3247183,635.3222821,635.3222821,635.9241213,z,1,0.5853322,None,I,1,2024-10-17_16h49.22.519,Motor  sequence learning,2024.1.5,None,2024-10-17 16h49.57.031103 +0530
-50,x,,,,,10,3,43,0,635.9425383,,,,,,,,,,,,,,,,635.9269842,635.9425383,636.9254576,636.9254576,636.9254576,636.9254576,636.9384526,637.9381064,637.9381064,638.5395994,x,1,0.5974419,None,I,1,2024-10-17_16h49.22.519,Motor  sequence learning,2024.1.5,None,2024-10-17 16h49.57.031103 +0530
50,c,,,,,11,0,44,2,638.5583685,,,,,,,,,,,,,,,,638.5424601,638.5583685,639.5412858,639.5412858,639.5412858,639.5412858,639.5543576,640.554087,640.554087,641.6216073,c,1,1.051444,None,I,1,2024-10-17_16h49.22.519,Motor  sequence learning,2024.1.5,None,2024-10-17 16h49.57.031103 +0530
-50,x,,,,,11,1,45,0,641.6405416,,,,,,,,,,,,,,,,641.6230941,641.6405416,642.6245775,642.6245775,642.6245775,642.6245775,642.636532,643.6362513,643.6362513,644.1710649,x,1,0.518651,None,I,1,2024-10-17_16h49.22.519,Motor  sequence learning,2024.1.5,None,2024-10-17 16h49.57.031103 +0530
-50,x,,,,,11,2,46,0,644.1901905,,,,,,,,,,,,,,,,644.1732271,644.1901905,645.1729432,645.1729432,645.1729432,645.1729432,645.1857536,646.1858646,646.1858646,646.7704611,x,1,0.5782465,None,I,1,2024-10-17_16h49.22.519,Motor  sequence learning,2024.1.5,None,2024-10-17 16h49.57.031103 +0530
-50,x,,,,,11,3,47,0,646.7885743,,,,,,,,,,,,,,,,646.7732823,646.7885743,647.7737767,647.7737767,647.7737767,647.7737767,647.7847919,648.7846829,648.7846829,649.4365033,x,1,0.6497503,None,I,1,2024-10-17_16h49.22.519,Motor  sequence learning,2024.1.5,None,2024-10-17 16h49.57.031103 +0530
-50,x,,,,,12,0,48,0,649.4548728,,,,,,,,,,,,,,,,649.4384637,649.4548728,650.4387926,650.4387926,650.4387926,650.4387926,650.4536092,651.4502057,651.4502057,651.8843128,x,1,0.4284987,None,I,1,2024-10-17_16h49.22.519,Motor  sequence learning,2024.1.5,None,2024-10-17 16h49.57.031103 +0530
150,v,,,,,12,1,49,1,651.9038583,,,,,,,,,,,,,,,,651.8854458,651.9038583,652.8872341,652.8872341,652.8872341,652.8872341,652.8997826,653.8995226,653.8995226,654.8003907,v,1,0.8934386,None,I,1,2024-10-17_16h49.22.519,Motor  sequence learning,2024.1.5,None,2024-10-17 16h49.57.031103 +0530
-150,z,,,,,12,2,50,3,654.8194417,,,,,,,,,,,,,,,,654.80197,654.8194417,655.8025019,655.8025019,655.8025019,655.8025019,655.8153493,656.8152657,656.8152657,657.4997552,z,1,0.6792779,None,I,1,2024-10-17_16h49.22.519,Motor  sequence learning,2024.1.5,None,2024-10-17 16h49.57.031103 +0530
150,v,,,,,12,3,51,1,657.5186334,,,,,,,,,,,,,,,,657.5024073,657.5186334,658.5014119,658.5014119,658.5014119,658.5014119,658.5146708,659.5140816,659.5140816,660.6319324,v,1,1.1023632,None,I,1,2024-10-17_16h49.22.519,Motor  sequence learning,2024.1.5,None,2024-10-17 16h49.57.031103 +0530
50,c,,,,,13,0,52,2,660.6510896,,,,,,,,,,,,,,,,660.6344398,660.6510896,661.6335976,661.6335976,661.6335976,661.6335976,661.6467786,662.6463872,662.6463872,663.464517,c,1,0.8070931,None,I,1,2024-10-17_16h49.22.519,Motor  sequence learning,2024.1.5,None,2024-10-17 16h49.57.031103 +0530
50,c,,,,,13,1,53,2,663.4830068,,,,,,,,,,,,,,,,663.4663231,663.4830068,664.4658496,664.4658496,664.4658496,664.4658496,664.4794467,665.4789659,665.4789659,666.2637461,c,1,0.7695924,None,I,1,2024-10-17_16h49.22.519,Motor  sequence learning,2024.1.5,None,2024-10-17 16h49.57.031103 +0530
-150,z,,,,,13,2,54,3,666.2823872,,,,,,,,,,,,,,,,666.2655477,666.2823872,667.2650625,667.2650625,667.2650625,667.2650625,667.2783182,668.2781799,668.2781799,669.7292239,z,1,1.4482385,None,I,1,2024-10-17_16h49.22.519,Motor  sequence learning,2024.1.5,None,2024-10-17 16h49.57.031103 +0530
-150,z,,,,,13,3,55,3,669.7478347,,,,,,,,,,,,,,,,669.7310215,669.7478347,670.731503,670.731503,670.731503,670.731503,670.7443724,671.7438537,671.7438537,672.1288048,z,1,0.3673763,None,I,1,2024-10-17_16h49.22.519,Motor  sequence learning,2024.1.5,None,2024-10-17 16h49.57.031103 +0530
50,c,,,,,14,0,56,2,672.1472588,,,,,,,,,,,,,,,,672.1307123,672.1472588,673.1300744,673.1300744,673.1300744,673.1300744,673.1433655,674.1431554,674.1431554,675.1105008,c,1,0.9607743,None,I,1,2024-10-17_16h49.22.519,Motor  sequence learning,2024.1.5,None,2024-10-17 16h49.57.031103 +0530
150,v,,,,,14,1,57,1,675.1290132,,,,,,,,,,,,,,,,675.112298,675.1290132,676.112912,676.112912,676.112912,676.112912,676.1251709,677.124931,677.124931,678.5758043,v,1,1.4349064,None,I,1,2024-10-17_16h49.22.519,Motor  sequence learning,2024.1.5,None,2024-10-17 16h49.57.031103 +0530
50,c,,,,,14,2,58,2,678.5947021,,,,,,,,,,,,,,,,678.5774947,678.5947021,679.5782726,679.5782726,679.5782726,679.5782726,679.5906762,680.590345,680.590345,681.225101,c,1,0.6290787,None,I,1,2024-10-17_16h49.22.519,Motor  sequence learning,2024.1.5,None,2024-10-17 16h49.57.031103 +0530
150,v,,,,,14,3,59,1,681.2443007,,,,,,,,,,,,,,,,681.2268519,681.2443007,682.2281835,682.2281835,682.2281835,682.2281835,682.2407004,683.239547,683.239547,684.1407437,v,1,0.8875007,None,I,1,2024-10-17_16h49.22.519,Motor  sequence learning,2024.1.5,None,2024-10-17 16h49.57.031103 +0530
50,c,,,,,15,0,60,2,684.1594141,,,,,,,,,,,,,,,,684.1422945,684.1594141,685.1425905,685.1425905,685.1425905,685.1425905,685.1555766,686.1553948,686.1553948,687.0731889,c,1,0.9140191,None,I,1,2024-10-17_16h49.22.519,Motor  sequence learning,2024.1.5,None,2024-10-17 16h49.57.031103 +0530
50,c,,,,,15,1,61,2,687.0916961,,,,,,,,,,,,,,,,687.0749092,687.0916961,688.0791558,688.0791558,688.0791558,688.0791558,688.0915425,689.0876903,689.0876903,689.8724924,c,1,0.7697772,None,I,1,2024-10-17_16h49.22.519,Motor  sequence learning,2024.1.5,None,2024-10-17 16h49.57.031103 +0530
50,c,,,,,15,2,62,2,689.8917121,,,,,,,,,,,,,,,,689.8745532,689.8917121,690.8773405,690.8773405,690.8773405,690.8773405,690.8902958,691.8866432,691.8866432,693.2209238,c,1,1.324318,None,I,1,2024-10-17_16h49.22.519,Motor  sequence learning,2024.1.5,None,2024-10-17 16h49.57.031103 +0530
50,c,,,,,15,3,63,2,693.2401198,,,,,,,,,,,,,,,,693.2225577,693.2401198,694.2232822,694.2232822,694.2232822,694.2232822,694.235739,695.2354062,695.2354062,696.0702443,c,1,0.8260249,None,I,1,2024-10-17_16h49.22.519,Motor  sequence learning,2024.1.5,None,2024-10-17 16h49.57.031103 +0530
150,v,,,,,16,0,64,1,696.0892375,,,,,,,,,,,,,,,,696.0731569,696.0892375,697.0731898,697.0731898,697.0731898,697.0731898,697.0855597,698.0847191,698.0847191,698.9190598,v,1,0.8290379,None,I,1,2024-10-17_16h49.22.519,Motor  sequence learning,2024.1.5,None,2024-10-17 16h49.57.031103 +0530
150,v,,,,,16,1,65,1,698.9378464,,,,,,,,,,,,,,,,698.9217446,698.9378464,699.9210406,699.9210406,699.9210406,699.9210406,699.9337772,700.9335159,700.9335159,701.4848735,v,1,0.5399513,None,I,1,2024-10-17_16h49.22.519,Motor  sequence learning,2024.1.5,None,2024-10-17 16h49.57.031103 +0530
150,v,,,,,16,2,66,1,701.504047,,,,,,,,,,,,,,,,701.4865346,701.504047,702.4865196,702.4865196,702.4865196,702.4865196,702.4997679,703.4994924,703.4994924,703.934289,v,1,0.42243,None,I,1,2024-10-17_16h49.22.519,Motor  sequence learning,2024.1.5,None,2024-10-17 16h49.57.031103 +0530
-150,z,,,,,16,3,67,3,703.9530124,,,,,,,,,,,,,,,,703.9368364,703.9530124,704.9369075,704.9369075,704.9369075,704.9369075,704.9488812,705.9488024,705.9488024,706.6166723,z,1,0.6504193,None,I,1,2024-10-17_16h49.22.519,Motor  sequence learning,2024.1.5,None,2024-10-17 16h49.57.031103 +0530
50,c,,,,,17,0,68,2,706.6358549,,,,,,,,,,,,,,,,706.6186028,706.6358549,707.618126,707.618126,707.618126,707.618126,707.648051,708.6309625,708.6309625,709.2993218,c,1,0.661278,None,I,1,2024-10-17_16h49.22.519,Motor  sequence learning,2024.1.5,None,2024-10-17 16h49.57.031103 +0530
-150,z,,,,,17,1,69,3,709.3177009,,,,,,,,,,,,,,,,709.3020441,709.3177009,710.301164,710.301164,710.301164,710.301164,710.3138963,711.3134986,711.3134986,712.8475182,z,1,1.5185235,None,I,1,2024-10-17_16h49.22.519,Motor  sequence learning,2024.1.5,None,2024-10-17 16h49.57.031103 +0530
-150,z,,,,,17,2,70,3,712.8666137,,,,,,,,,,,,,,,,712.8491123,712.8666137,713.8500139,713.8500139,713.8500139,713.8500139,713.8626213,714.8621264,714.8621264,715.5466019,z,1,0.6828239,None,I,1,2024-10-17_16h49.22.519,Motor  sequence learning,2024.1.5,None,2024-10-17 16h49.57.031103 +0530
-150,z,,,,,17,3,71,3,715.5661006,,,,,,,,,,,,,,,,715.5478209,715.5661006,716.5483541,716.5483541,716.5483541,716.5483541,716.5783669,717.5613082,717.5613082,718.1963652,z,1,0.6261161,None,I,1,2024-10-17_16h49.22.519,Motor  sequence learning,2024.1.5,None,2024-10-17 16h49.57.031103 +0530
50,c,,,,,18,0,72,2,718.2154629,,,,,,,,,,,,,,,,718.1990673,718.2154629,719.198129,719.198129,719.198129,719.198129,719.2108087,720.2107441,720.2107441,721.7451042,c,1,1.5279461,None,I,1,2024-10-17_16h49.22.519,Motor  sequence learning,2024.1.5,None,2024-10-17 16h49.57.031103 +0530
50,c,,,,,18,1,73,2,721.7640765,,,,,,,,,,,,,,,,721.7469085,721.7640765,722.7463294,722.7463294,722.7463294,722.7463294,722.7761651,723.759203,723.759203,724.4604213,c,1,0.6847262,None,I,1,2024-10-17_16h49.22.519,Motor  sequence learning,2024.1.5,None,2024-10-17 16h49.57.031103 +0530
50,c,,,,,18,2,74,2,724.4797469,,,,,,,,,,,,,,,,724.4624016,724.4797469,725.4625556,725.4625556,725.4625556,725.4625556,725.4753149,726.4748355,726.4748355,727.1593433,c,1,0.6703477,None,I,1,2024-10-17_16h49.22.519,Motor  sequence learning,2024.1.5,None,2024-10-17 16h49.57.031103 +0530
150,v,,,,,18,3,75,1,727.1787295,,,,,,,,,,,,,,,,727.1608832,727.1787295,728.1616704,728.1616704,728.1616704,728.1616704,728.1743819,729.1739939,729.1739939,729.8250629,v,1,0.6420821,None,I,1,2024-10-17_16h49.22.519,Motor  sequence learning,2024.1.5,None,2024-10-17 16h49.57.031103 +0530
50,c,,,,,19,0,76,2,729.8442956,,,,,,,,,,,,,,,,729.8266681,729.8442956,730.8270835,730.8270835,730.8270835,730.8270835,730.8401023,731.839759,731.839759,732.4240344,c,1,0.5676139,None,I,1,2024-10-17_16h49.22.519,Motor  sequence learning,2024.1.5,None,2024-10-17 16h49.57.031103 +0530
-50,x,,,,,19,1,77,0,732.4432348,,,,,,,,,,,,,,,,732.4255451,732.4432348,733.426555,733.426555,733.426555,733.426555,733.4394087,734.4392946,734.4392946,735.8234311,x,1,1.3800696,None,I,1,2024-10-17_16h49.22.519,Motor  sequence learning,2024.1.5,None,2024-10-17 16h49.57.031103 +0530
150,v,,,,,19,2,78,1,735.8425068,,,,,,,,,,,,,,,,735.8255967,735.8425068,736.8271617,736.8271617,736.8271617,736.8271617,736.8381497,737.8379629,737.8379629,739.9884484,v,1,2.1385754,None,I,1,2024-10-17_16h49.22.519,Motor  sequence learning,2024.1.5,None,2024-10-17 16h49.57.031103 +0530
-150,z,,,,,19,3,79,3,740.0069894,,,,,,,,,,,,,,,,739.9899461,740.0069894,740.9905934,740.9905934,740.9905934,740.9905934,741.0035575,742.0032659,742.0032659,743.5040862,z,1,1.4984647,None,I,1,2024-10-17_16h49.22.519,Motor  sequence learning,2024.1.5,None,2024-10-17 16h49.57.031103 +0530
-50,x,,,,,20,0,80,0,743.5229906,,,,,,,,,,,,,,,,743.5067718,743.5229906,744.5058508,744.5058508,744.5058508,744.5058508,744.5187444,745.5185548,745.5185548,745.9696954,x,1,0.4397088,None,I,1,2024-10-17_16h49.22.519,Motor  sequence learning,2024.1.5,None,2024-10-17 16h49.57.031103 +0530
50,c,,,,,20,1,81,2,745.9891407,,,,,,,,,,,,,,,,745.9712368,745.9891407,746.9721113,746.9721113,746.9721113,746.9721113,746.9847065,747.9842832,747.9842832,748.4688474,c,1,0.4725668,None,I,1,2024-10-17_16h49.22.519,Motor  sequence learning,2024.1.5,None,2024-10-17 16h49.57.031103 +0530
50,c,,,,,20,2,82,2,748.4878432,,,,,,,,,,,,,,,,748.4715011,748.4878432,749.471432,749.471432,749.471432,749.471432,749.483901,750.4836861,750.4836861,750.9512885,c,1,0.4623802,None,I,1,2024-10-17_16h49.22.519,Motor  sequence learning,2024.1.5,None,2024-10-17 16h49.57.031103 +0530
-50,x,,,,,20,3,83,0,750.9705906,,,,,,,,,,,,,,,,750.9526415,750.9705906,751.9531889,751.9531889,751.9531889,751.9531889,751.96651,752.9661433,752.9661433,753.7008973,x,1,0.7282261,None,I,1,2024-10-17_16h49.22.519,Motor  sequence learning,2024.1.5,None,2024-10-17 16h49.57.031103 +0530
-50,x,,,,,21,0,84,0,753.719884,,,,,,,,,,,,,,,,753.70267,753.719884,754.7028071,754.7028071,754.7028071,754.7028071,754.7154513,755.7151395,755.7151395,756.1499841,x,1,0.4241574,None,I,1,2024-10-17_16h49.22.519,Motor  sequence learning,2024.1.5,None,2024-10-17 16h49.57.031103 +0530
-150,z,,,,,21,1,85,3,756.1686196,,,,,,,,,,,,,,,,756.1518881,756.1686196,757.1529543,757.1529543,757.1529543,757.1529543,757.1646395,758.1657101,758.1657101,758.8821622,z,1,0.7054171,None,I,1,2024-10-17_16h49.22.519,Motor  sequence learning,2024.1.5,None,2024-10-17 16h49.57.031103 +0530
150,v,,,,,21,2,86,1,758.9012779,,,,,,,,,,,,,,,,758.8848502,758.9012779,759.8842747,759.8842747,759.8842747,759.8842747,759.8969747,760.8966003,760.8966003,762.0650275,v,1,1.162254,None,I,1,2024-10-17_16h49.22.519,Motor  sequence learning,2024.1.5,None,2024-10-17 16h49.57.031103 +0530
150,v,,,,,21,3,87,1,762.0833153,,,,,,,,,,,,,,,,762.0677656,762.0833153,763.0665745,763.0665745,763.0665745,763.0665745,763.0791598,764.0789412,764.0789412,764.6471356,v,1,0.564999,None,I,1,2024-10-17_16h49.22.519,Motor  sequence learning,2024.1.5,None,2024-10-17 16h49.57.031103 +0530
-150,z,,,,,22,0,88,3,764.666043,,,,,,,,,,,,,,,,764.6499671,764.666043,765.6490567,765.6490567,765.6490567,765.6490567,765.6617234,766.6616041,766.6616041,767.3290902,z,1,0.660079,None,I,1,2024-10-17_16h49.22.519,Motor  sequence learning,2024.1.5,None,2024-10-17 16h49.57.031103 +0530
150,v,,,,,22,1,89,1,767.348536,,,,,,,,,,,,,,,,767.3309671,767.348536,768.3311785,768.3311785,768.3311785,768.3311785,768.3441814,769.3441145,769.3441145,769.9453126,v,1,0.5965692,None,I,1,2024-10-17_16h49.22.519,Motor  sequence learning,2024.1.5,None,2024-10-17 16h49.57.031103 +0530
150,v,,,,,22,2,90,1,769.9643971,,,,,,,,,,,,,,,,769.9478241,769.9643971,770.9483052,770.9483052,770.9483052,770.9483052,770.9599914,771.9596298,771.9596298,772.7942174,v,1,0.8296629,None,I,1,2024-10-17_16h49.22.519,Motor  sequence learning,2024.1.5,None,2024-10-17 16h49.57.031103 +0530
150,v,,,,,22,3,91,1,772.8134868,,,,,,,,,,,,,,,,772.7962515,772.8134868,773.7962306,773.7962306,773.7962306,773.7962306,773.8091628,774.8089447,774.8089447,775.4931207,v,1,0.6757075,None,I,1,2024-10-17_16h49.22.519,Motor  sequence learning,2024.1.5,None,2024-10-17 16h49.57.031103 +0530
-150,z,,,,,23,0,92,3,775.5122676,,,,,,,,,,,,,,,,775.4954611,775.5122676,776.4978678,776.4978678,776.4978678,776.4978678,776.5092086,777.507748,777.507748,778.4089514,z,1,0.8915304,None,I,1,2024-10-17_16h49.22.519,Motor  sequence learning,2024.1.5,None,2024-10-17 16h49.57.031103 +0530
50,c,,,,,23,1,93,2,778.4279416,,,,,,,,,,,,,,,,778.4104479,778.4279416,779.4116818,779.4116818,779.4116818,779.4116818,779.4236733,780.4233786,780.4233786,781.2079945,c,1,0.7732307,None,I,1,2024-10-17_16h49.22.519,Motor  sequence learning,2024.1.5,None,2024-10-17 16h49.57.031103 +0530
150,v,,,,,23,2,94,1,781.2268914,,,,,,,,,,,,,,,,781.2095221,781.2268914,782.2102543,782.2102543,782.2102543,782.2102543,782.2228286,783.2223711,783.2223711,784.0906121,v,1,0.859975,None,I,1,2024-10-17_16h49.22.519,Motor  sequence learning,2024.1.5,None,2024-10-17 16h49.57.031103 +0530
150,v,,,,,23,3,95,1,784.1097011,,,,,,,,,,,,,,,,784.093598,784.1097011,785.0938229,785.0938229,785.0938229,785.0938229,785.1051708,786.1050698,786.1050698,786.5897895,v,1,0.4789292,None,I,1,2024-10-17_16h49.22.519,Motor  sequence learning,2024.1.5,None,2024-10-17 16h49.57.031103 +0530
-50,x,,,,,24,0,96,0,786.6087704,,,,,,,,,,,,,,,,786.5915625,786.6087704,787.593551,787.593551,787.593551,787.593551,787.6062762,788.6039216,788.6039216,789.2057064,x,1,0.5995979,None,I,1,2024-10-17_16h49.22.519,Motor  sequence learning,2024.1.5,None,2024-10-17 16h49.57.031103 +0530
50,c,,,,,24,1,97,2,789.2240342,,,,,,,,,,,,,,,,789.2075398,789.2240342,790.2068205,790.2068205,790.2068205,790.2068205,790.2202415,791.2198107,791.2198107,792.9375751,c,1,1.7015217,None,I,1,2024-10-17_16h49.22.519,Motor  sequence learning,2024.1.5,None,2024-10-17 16h49.57.031103 +0530
150,v,,,,,24,2,98,1,792.9560042,,,,,,,,,,,,,,,,792.9401237,792.9560042,793.939361,793.939361,793.939361,793.939361,793.9521857,794.9517256,794.9517256,795.3196898,v,1,0.3647062,None,I,1,2024-10-17_16h49.22.519,Motor  sequence learning,2024.1.5,None,2024-10-17 16h49.57.031103 +0530
50,c,,,,,24,3,99,2,795.3389615,,,,,,,,,,,,,,,,795.3211803,795.3389615,796.3216529,796.3216529,796.3216529,796.3216529,796.3346364,797.3343829,797.3343829,798.3190579,c,1,0.9763847,None,I,1,2024-10-17_16h49.22.519,Motor  sequence learning,2024.1.5,None,2024-10-17 16h49.57.031103 +0530
150,v,,,,,25,0,100,1,798.337783,,,,,,,,,,,,,,,,798.3217941,798.337783,799.3228945,799.3228945,799.3228945,799.3228945,799.3336097,800.3333413,800.3333413,801.4509778,v,1,1.1030357,None,I,1,2024-10-17_16h49.22.519,Motor  sequence learning,2024.1.5,None,2024-10-17 16h49.57.031103 +0530
-150,z,,,,,25,1,101,3,801.4697994,,,,,,,,,,,,,,,,801.4524715,801.4697994,802.4526905,802.4526905,802.4526905,802.4526905,802.4663632,803.46567,803.46567,805.8165253,z,1,2.3366111,None,I,1,2024-10-17_16h49.22.519,Motor  sequence learning,2024.1.5,None,2024-10-17 16h49.57.031103 +0530
50,c,,,,,25,2,102,2,805.8361525,,,,,,,,,,,,,,,,805.8184072,805.8361525,806.8177659,806.8177659,806.8177659,806.8177659,806.8478802,807.8311776,807.8311776,809.4151489,c,1,1.5810899,None,I,1,2024-10-17_16h49.22.519,Motor  sequence learning,2024.1.5,None,2024-10-17 16h49.57.031103 +0530
-150,z,,,,,25,3,103,3,809.4345502,,,,,,,,,,,,,,,,809.4168108,809.4345502,810.4180491,810.4180491,810.4180491,810.4180491,810.4301811,811.4295663,811.4295663,812.1640962,z,1,0.7215245,None,I,1,2024-10-17_16h49.22.519,Motor  sequence learning,2024.1.5,None,2024-10-17 16h49.57.031103 +0530
-50,x,,,,,26,0,104,0,812.183172,,,,,,,,,,,,,,,,812.1667619,812.183172,813.1658811,813.1658811,813.1658811,813.1658811,813.1789569,814.1787071,814.1787071,814.7467926,x,1,0.5640023,None,I,1,2024-10-17_16h49.22.519,Motor  sequence learning,2024.1.5,None,2024-10-17 16h49.57.031103 +0530
50,c,,,,,26,1,105,2,814.7662151,,,,,,,,,,,,,,,,814.749417,814.7662151,815.7504587,815.7504587,815.7504587,815.7504587,815.7627279,816.7610889,816.7610889,818.0286819,c,1,1.2510906,None,I,1,2024-10-17_16h49.22.519,Motor  sequence learning,2024.1.5,None,2024-10-17 16h49.57.031103 +0530
150,v,,,,,26,2,106,1,818.0485166,,,,,,,,,,,,,,,,818.0305141,818.0485166,819.0307731,819.0307731,819.0307731,819.0307731,819.0603705,820.0434508,820.0434508,822.9775177,v,1,2.9276787,None,I,1,2024-10-17_16h49.22.519,Motor  sequence learning,2024.1.5,None,2024-10-17 16h49.57.031103 +0530
-50,x,,,,,26,3,107,0,822.9962441,,,,,,,,,,,,,,,,822.9796254,822.9962441,823.9790847,823.9790847,823.9790847,823.9790847,823.9920319,824.9917467,824.9917467,825.5097855,x,1,0.5022431,None,I,1,2024-10-17_16h49.22.519,Motor  sequence learning,2024.1.5,None,2024-10-17 16h49.57.031103 +0530
50,c,,,,,27,0,108,2,825.5291261,,,,,,,,,,,,,,,,825.5122013,825.5291261,826.5125985,826.5125985,826.5125985,826.5125985,826.5252601,827.5241695,827.5241695,828.3586204,c,1,0.8195082,None,I,1,2024-10-17_16h49.22.519,Motor  sequence learning,2024.1.5,None,2024-10-17 16h49.57.031103 +0530
50,c,,,,,27,1,109,2,828.3778603,,,,,,,,,,,,,,,,828.3602622,828.3778603,829.3630038,829.3630038,829.3630038,829.3630038,829.3735258,830.3732956,830.3732956,831.1410887,c,1,0.757706,None,I,1,2024-10-17_16h49.22.519,Motor  sequence learning,2024.1.5,None,2024-10-17 16h49.57.031103 +0530
-50,x,,,,,27,2,110,0,831.1603834,,,,,,,,,,,,,,,,831.1430282,831.1603834,832.1455313,832.1455313,832.1455313,832.1455313,832.15815,833.1556486,833.1556486,833.9399705,x,1,0.7680982,None,I,1,2024-10-17_16h49.22.519,Motor  sequence learning,2024.1.5,None,2024-10-17 16h49.57.031103 +0530
-50,x,,,,,27,3,111,0,833.9592779,,,,,,,,,,,,,,,,833.941558,833.9592779,834.9421896,834.9421896,834.9421896,834.9421896,834.9549755,835.9546212,835.9546212,836.5893164,x,1,0.6238069,None,I,1,2024-10-17_16h49.22.519,Motor  sequence learning,2024.1.5,None,2024-10-17 16h49.57.031103 +0530
-50,x,,,,,28,0,112,0,836.6084034,,,,,,,,,,,,,,,,836.590907,836.6084034,837.5908432,837.5908432,837.5908432,837.5908432,837.604122,838.6041395,838.6041395,839.1717729,x,1,0.5531803,None,I,1,2024-10-17_16h49.22.519,Motor  sequence learning,2024.1.5,None,2024-10-17 16h49.57.031103 +0530
150,v,,,,,28,1,113,1,839.1901641,,,,,,,,,,,,,,,,839.1735408,839.1901641,840.1739248,840.1739248,840.1739248,840.1739248,840.1866359,841.1862993,841.1862993,841.7544041,v,1,0.5588505,None,I,1,2024-10-17_16h49.22.519,Motor  sequence learning,2024.1.5,None,2024-10-17 16h49.57.031103 +0530
-50,x,,,,,28,2,114,0,841.7734477,,,,,,,,,,,,,,,,841.756113,841.7734477,842.7565472,842.7565472,842.7565472,842.7565472,842.7691,843.7688812,843.7688812,844.5862515,x,1,0.8000832,None,I,1,2024-10-17_16h49.22.519,Motor  sequence learning,2024.1.5,None,2024-10-17 16h49.57.031103 +0530
-50,x,,,,,28,3,115,0,844.6056019,,,,,,,,,,,,,,,,844.5879308,844.6056019,845.588541,845.588541,845.588541,845.588541,845.6014039,846.6011329,846.6011329,846.985711,x,1,0.3670326,None,I,1,2024-10-17_16h49.22.519,Motor  sequence learning,2024.1.5,None,2024-10-17 16h49.57.031103 +0530
50,c,,,,,29,0,116,2,847.0048315,,,,,,,,,,,,,,,,846.9878595,847.0048315,847.98773,847.98773,847.98773,847.98773,848.0006363,849.000199,849.000199,849.6685511,c,1,0.6663393,None,I,1,2024-10-17_16h49.22.519,Motor  sequence learning,2024.1.5,None,2024-10-17 16h49.57.031103 +0530
150,v,,,,,29,1,117,1,849.6871133,,,,,,,,,,,,,,,,849.6713548,849.6871133,850.6705324,850.6705324,850.6705324,850.6705324,850.6832166,851.6826825,851.6826825,853.0672549,v,1,1.3805121,None,I,1,2024-10-17_16h49.22.519,Motor  sequence learning,2024.1.5,None,2024-10-17 16h49.57.031103 +0530
150,v,,,,,29,2,118,1,853.0858088,,,,,,,,,,,,,,,,853.069059,853.0858088,854.0700826,854.0700826,854.0700826,854.0700826,854.0820353,855.081712,855.081712,855.6992982,v,1,0.6098127,None,I,1,2024-10-17_16h49.22.519,Motor  sequence learning,2024.1.5,None,2024-10-17 16h49.57.031103 +0530
-150,z,,,,,29,3,119,3,855.7187934,,,,,,,,,,,,,,,,855.7009275,855.7187934,856.7013792,856.7013792,856.7013792,856.7013792,856.7144302,857.7141276,857.7141276,858.2657096,z,1,0.538054,None,I,1,2024-10-17_16h49.22.519,Motor  sequence learning,2024.1.5,None,2024-10-17 16h49.57.031103 +0530
-50,x,,,,,30,0,120,0,858.284758,,,,,,,,,,,,,,,,858.2678153,858.284758,859.2687367,859.2687367,859.2687367,859.2687367,859.2809033,860.2797755,860.2797755,860.7312366,x,1,0.4342819,None,I,1,2024-10-17_16h49.22.519,Motor  sequence learning,2024.1.5,None,2024-10-17 16h49.57.031103 +0530
-50,x,,,,,30,1,121,0,860.7501216,,,,,,,,,,,,,,,,860.7332504,860.7501216,861.7330696,861.7330696,861.7330696,861.7330696,861.7461061,862.7457841,862.7457841,863.3802233,x,1,0.6191707,None,I,1,2024-10-17_16h49.22.519,Motor  sequence learning,2024.1.5,None,2024-10-17 16h49.57.031103 +0530
-50,x,,,,,30,2,122,0,863.3993208,,,,,,,,,,,,,,,,863.3817223,863.3993208,864.3824177,864.3824177,864.3824177,864.3824177,864.3951475,865.3947425,865.3947425,865.7957642,x,1,0.3867187,None,I,1,2024-10-17_16h49.22.519,Motor  sequence learning,2024.1.5,None,2024-10-17 16h49.57.031103 +0530
-150,z,,,,,30,3,123,3,865.815069,,,,,,,,,,,,,,,,865.7973588,865.815069,866.7978789,866.7978789,866.7978789,866.7978789,866.8110999,867.8105381,867.8105381,868.4454242,z,1,0.6265443,None,I,1,2024-10-17_16h49.22.519,Motor  sequence learning,2024.1.5,None,2024-10-17 16h49.57.031103 +0530
-50,x,,,,,31,0,124,0,868.4640911,,,,,,,,,,,,,,,,868.4478435,868.4640911,869.4472897,869.4472897,869.4472897,869.4472897,869.4599753,870.4598246,870.4598246,870.9441325,x,1,0.4728216,None,I,1,2024-10-17_16h49.22.519,Motor  sequence learning,2024.1.5,None,2024-10-17 16h49.57.031103 +0530
50,c,,,,,31,1,125,2,870.9630362,,,,,,,,,,,,,,,,870.9456669,870.9630362,871.9464604,871.9464604,871.9464604,871.9464604,871.9592454,872.9592619,872.9592619,873.4934743,c,1,0.5244451,None,I,1,2024-10-17_16h49.22.519,Motor  sequence learning,2024.1.5,None,2024-10-17 16h49.57.031103 +0530
150,v,,,,,31,2,126,1,873.5124972,,,,,,,,,,,,,,,,873.4957832,873.5124972,874.4952639,874.4952639,874.4952639,874.4952639,874.5085491,875.5080245,875.5080245,876.0256779,v,1,0.5009666,None,I,1,2024-10-17_16h49.22.519,Motor  sequence learning,2024.1.5,None,2024-10-17 16h49.57.031103 +0530
150,v,,,,,31,3,127,1,876.0444813,,,,,,,,,,,,,,,,876.0271566,876.0444813,877.0280973,877.0280973,877.0280973,877.0280973,877.0407511,878.0417461,878.0417461,878.7083956,v,1,0.6632969,None,I,1,2024-10-17_16h49.22.519,Motor  sequence learning,2024.1.5,None,2024-10-17 16h49.57.031103 +0530
-50,x,,,,,32,0,128,0,878.7279967,,,,,,,,,,,,,,,,878.7101494,878.7279967,879.7104433,879.7104433,879.7104433,879.7104433,879.7232274,880.722831,880.722831,881.3406231,x,1,0.6088939,None,I,1,2024-10-17_16h49.22.519,Motor  sequence learning,2024.1.5,None,2024-10-17 16h49.57.031103 +0530
-50,x,,,,,32,1,129,0,881.3603763,,,,,,,,,,,,,,,,881.3421408,881.3603763,882.3427658,882.3427658,882.3427658,882.3427658,882.355719,883.3553542,883.3553542,883.8070903,x,1,0.4461051,None,I,1,2024-10-17_16h49.22.519,Motor  sequence learning,2024.1.5,None,2024-10-17 16h49.57.031103 +0530
150,v,,,,,32,2,130,1,883.8262203,,,,,,,,,,,,,,,,883.8097607,883.8262203,884.8087862,884.8087862,884.8087862,884.8087862,884.8216214,885.8214682,885.8214682,886.5227804,v,1,0.6881125,None,I,1,2024-10-17_16h49.22.519,Motor  sequence learning,2024.1.5,None,2024-10-17 16h49.57.031103 +0530
150,v,,,,,32,3,131,1,886.5411212,,,,,,,,,,,,,,,,886.5243855,886.5411212,887.5240974,887.5240974,887.5240974,887.5240974,887.5374838,888.5371449,888.5371449,889.0549288,v,1,0.502846,None,I,1,2024-10-17_16h49.22.519,Motor  sequence learning,2024.1.5,None,2024-10-17 16h49.57.031103 +0530
150,v,,,,,33,0,132,1,889.0735073,,,,,,,,,,,,,,,,889.0564019,889.0735073,890.058,890.058,890.058,890.058,890.0697589,891.0695906,891.0695906,891.6042517,v,1,0.5328475,None,I,1,2024-10-17_16h49.22.519,Motor  sequence learning,2024.1.5,None,2024-10-17 16h49.57.031103 +0530
150,v,,,,,33,1,133,1,891.6228154,,,,,,,,,,,,,,,,891.6059603,891.6228154,892.60588,892.60588,892.60588,892.60588,892.6188723,893.6186508,893.6186508,894.4364844,v,1,0.8027889,None,I,1,2024-10-17_16h49.22.519,Motor  sequence learning,2024.1.5,None,2024-10-17 16h49.57.031103 +0530
50,c,,,,,33,2,134,2,894.4557611,,,,,,,,,,,,,,,,894.4381396,894.4557611,895.4396198,895.4396198,895.4396198,895.4396198,895.4511554,896.4508603,896.4508603,896.8519984,c,1,0.3888346,None,I,1,2024-10-17_16h49.22.519,Motor  sequence learning,2024.1.5,None,2024-10-17 16h49.57.031103 +0530
-150,z,,,,,33,3,135,3,896.8714938,,,,,,,,,,,,,,,,896.8539921,896.8714938,897.8557147,897.8557147,897.8557147,897.8557147,897.8673268,898.8670245,898.8670245,899.3687144,z,1,0.4937478,None,I,1,2024-10-17_16h49.22.519,Motor  sequence learning,2024.1.5,None,2024-10-17 16h49.57.031103 +0530
-150,z,,,,,34,0,136,3,899.386913,,,,,,,,,,,,,,,,899.3714777,899.386913,900.3702915,900.3702915,900.3702915,900.3702915,900.3828598,901.3826513,901.3826513,902.101039,z,1,0.7038451,None,I,1,2024-10-17_16h49.22.519,Motor  sequence learning,2024.1.5,None,2024-10-17 16h49.57.031103 +0530
150,v,,,,,34,1,137,1,902.1200616,,,,,,,,,,,,,,,,902.1038706,902.1200616,903.1034372,903.1034372,903.1034372,903.1034372,903.1163041,904.1151754,904.1151754,904.6827917,v,1,0.5503156,None,I,1,2024-10-17_16h49.22.519,Motor  sequence learning,2024.1.5,None,2024-10-17 16h49.57.031103 +0530
-50,x,,,,,34,2,138,0,904.7022514,,,,,,,,,,,,,,,,904.6855643,904.7022514,905.6859547,905.6859547,905.6859547,905.6859547,905.6978184,906.697676,906.697676,907.1149725,x,1,0.4057866,None,I,1,2024-10-17_16h49.22.519,Motor  sequence learning,2024.1.5,None,2024-10-17 16h49.57.031103 +0530
150,v,,,,,34,3,139,1,907.134725,,,,,,,,,,,,,,,,907.1164682,907.134725,908.1173868,908.1173868,908.1173868,908.1173868,908.1303221,909.1299831,909.1299831,909.681912,v,1,0.5502479,None,I,1,2024-10-17_16h49.22.519,Motor  sequence learning,2024.1.5,None,2024-10-17 16h49.57.031103 +0530
50,c,,,,,35,0,140,2,909.7009217,,,,,,,,,,,,,,,,909.6835201,909.7009217,910.684888,910.684888,910.684888,910.684888,910.6963096,911.695797,911.695797,912.0801175,c,1,0.3787986,None,I,1,2024-10-17_16h49.22.519,Motor  sequence learning,2024.1.5,None,2024-10-17 16h49.57.031103 +0530
150,v,,,,,35,1,141,1,912.0995579,,,,,,,,,,,,,,,,912.0817172,912.0995579,913.0823571,913.0823571,913.0823571,913.0823571,913.0952934,914.0950648,914.0950648,914.5125347,v,1,0.4132396,None,I,1,2024-10-17_16h49.22.519,Motor  sequence learning,2024.1.5,None,2024-10-17 16h49.57.031103 +0530
-150,z,,,,,35,2,142,3,914.5323766,,,,,,,,,,,,,,,,914.5144864,914.5323766,915.5154299,915.5154299,915.5154299,915.5154299,915.527816,916.5275393,916.5275393,917.0619303,z,1,0.5305495,None,I,1,2024-10-17_16h49.22.519,Motor  sequence learning,2024.1.5,None,2024-10-17 16h49.57.031103 +0530
150,v,,,,,35,3,143,1,917.0809175,,,,,,,,,,,,,,,,917.0641008,917.0809175,918.0640303,918.0640303,918.0640303,918.0640303,918.0770418,919.0767132,919.0767132,921.1439113,v,1,2.0502008,None,I,1,2024-10-17_16h49.22.519,Motor  sequence learning,2024.1.5,None,2024-10-17 16h49.57.031103 +0530
-150,z,,,,,36,0,144,3,921.16308,,,,,,,,,,,,,,,,921.1466336,921.16308,922.1457121,922.1457121,922.1457121,922.1457121,922.1591319,923.158784,923.158784,923.6932498,z,1,0.5282388,None,I,1,2024-10-17_16h49.22.519,Motor  sequence learning,2024.1.5,None,2024-10-17 16h49.57.031103 +0530
-150,z,,,,,36,1,145,3,923.7118235,,,,,,,,,,,,,,,,923.6947802,923.7118235,924.6953103,924.6953103,924.6953103,924.6953103,924.7082702,925.7077936,925.7077936,926.2261514,z,1,0.5092395,None,I,1,2024-10-17_16h49.22.519,Motor  sequence learning,2024.1.5,None,2024-10-17 16h49.57.031103 +0530
50,c,,,,,36,2,146,2,926.2447916,,,,,,,,,,,,,,,,926.2280002,926.2447916,927.2279145,927.2279145,927.2279145,927.2279145,927.240732,928.2404967,928.2404967,929.125155,c,1,0.8771918,None,I,1,2024-10-17_16h49.22.519,Motor  sequence learning,2024.1.5,None,2024-10-17 16h49.57.031103 +0530
50,c,,,,,36,3,147,2,929.143982,,,,,,,,,,,,,,,,929.1271237,929.143982,930.1275657,930.1275657,930.1275657,930.1275657,930.1397044,931.1393782,931.1393782,931.6903935,c,1,0.5472299,None,I,1,2024-10-17_16h49.22.519,Motor  sequence learning,2024.1.5,None,2024-10-17 16h49.57.031103 +0530
-50,x,,,,,37,0,148,0,931.7092986,,,,,,,,,,,,,,,,931.692071,931.7092986,932.6926008,932.6926008,932.6926008,932.6926008,932.7052777,933.7049927,933.7049927,935.0061501,c,0,1.2975272,None,I,1,2024-10-17_16h49.22.519,Motor  sequence learning,2024.1.5,None,2024-10-17 16h49.57.031103 +0530
-150,z,,,,,37,1,149,3,935.0248762,,,,,,,,,,,,,,,,935.0088894,935.0248762,936.0080661,936.0080661,936.0080661,936.0080661,936.0208347,937.0205279,937.0205279,937.6546746,z,1,0.6300584,None,I,1,2024-10-17_16h49.22.519,Motor  sequence learning,2024.1.5,None,2024-10-17 16h49.57.031103 +0530
50,c,,,,,37,2,150,2,937.6740601,,,,,,,,,,,,,,,,937.6559992,937.6740601,938.6570641,938.6570641,938.6570641,938.6570641,938.6700891,939.6699024,939.6699024,940.1709105,c,1,0.4934497,None,I,1,2024-10-17_16h49.22.519,Motor  sequence learning,2024.1.5,None,2024-10-17 16h49.57.031103 +0530
